trial,common,reward.1.1,reward.1.2,reward.2.1,reward.2.2,isymbol_lft,isymbol_rgt,rt1,choice1,final_state,fsymbol_lft,fsymbol_rgt,rt2,choice2,reward,slow
0,1,0.2895908423698636,0.5726802388996697,0.7346649723345504,0.6042656289980994,2,1,1.1806520378790992,2,2,2,1,0.4191430588721232,1,0,0
1,1,0.2792428422795463,0.561012140823606,0.7349011514679202,0.5495568090890832,2,1,0.29846868931645076,2,2,2,1,0.2938206335884388,2,1,0
2,0,0.26549720096848484,0.5706600252463986,0.7304454603095336,0.5271675017237243,2,1,0.4333969354470355,1,2,1,2,0.344499775566419,2,0,0
3,1,0.2785710193375907,0.5536662569017621,0.704615172007935,0.5189130259234802,1,2,0.488260776513016,1,1,2,1,0.6384456814707846,2,0,0
4,1,0.25161509948327465,0.5154328152844534,0.7312658645855055,0.5088295996389571,2,1,0.6089598986714009,1,1,2,1,0.28432438828622253,1,0,0
5,1,0.26007936599949183,0.49109824981562866,0.7111871987492617,0.510527051590411,2,1,0.6041461212521426,1,1,1,2,0.34076484937304485,2,0,0
6,0,0.33482627455478736,0.4567841024350081,0.6697503708182828,0.5005101870312374,1,2,0.527231635757289,1,2,2,1,0.3236804221710372,2,0,0
7,1,0.315421663115097,0.46263688875751,0.6885468529891371,0.5004971049532041,2,1,0.4274511792650628,2,2,2,1,0.3613861819503654,1,1,0
8,1,0.3323352089858912,0.4723425959798206,0.6907557832403345,0.516378881553885,1,2,0.3797100504316404,2,2,2,1,0.2738108714033842,1,1,0
9,1,0.32383702618475385,0.48177289475358576,0.6985684267708006,0.49546867585552157,1,2,0.3241730593281318,2,2,1,2,0.276793861837632,1,0,0
10,1,0.38470572570943157,0.49305481036273924,0.6978025811081978,0.4861688659557315,2,1,1.2637721818782666,1,1,1,2,0.7515617533658769,1,1,0
11,1,0.40508467480023325,0.460412260845275,0.619317441680522,0.476597660463856,1,2,0.9066434475180358,1,1,1,2,0.8129391511606627,1,1,0
12,1,0.39832238411758647,0.44179543713786185,0.617292766609085,0.4750826484381214,2,1,0.7894220659791245,1,1,1,2,0.8048990833385687,1,0,0
13,0,0.4603162024807148,0.49660156480087847,0.5905701214963015,0.4579150443707911,1,2,1.341447357101515,1,2,2,1,0.7758488859667523,1,1,0
14,1,0.4539004032229286,0.5018591994192365,0.6249120731913361,0.49033842941003114,1,2,0.9949933333996341,1,1,1,2,0.8292825096000342,1,1,0
15,1,0.4306057707915716,0.4710543714530364,0.6172738668159279,0.5085613468499682,2,1,0.5071539548471264,1,1,1,2,0.7945645700310706,2,0,0
16,1,0.4423814498585089,0.46875016819787785,0.6102649472840567,0.4742922913129328,2,1,0.7311127834209401,1,1,1,2,0.5678862756785747,1,0,0
17,1,0.41188784184789373,0.48441940582431764,0.6003302418491883,0.4646666289209376,1,2,0.6563224938063286,1,1,1,2,0.4718005978656947,2,0,0
18,1,0.40269870400996743,0.4562158123174145,0.625050473377527,0.4658797225543739,1,2,0.7735230469365888,1,1,1,2,0.6210919942536748,2,0,0
19,0,0.39141355852411674,0.43503329360675025,0.6361940068211706,0.4539938463603188,2,1,0.909483053976146,1,2,2,1,1.0984145354523207,2,1,0
20,0,0.40411918900449695,0.4340833395828818,0.603219385863581,0.4476370439846502,2,1,0.6377347988077418,2,1,1,2,0.5865304186841058,2,0,0
21,0,0.40177757841904604,0.4314738028612113,0.5976710934718117,0.4228087505504341,2,1,0.6616144190547857,2,1,2,1,0.9918159444791854,2,0,0
22,1,0.37232704293818,0.429221583370039,0.647685105126161,0.40179649443937837,1,2,0.5283382581956175,2,2,2,1,1.3411693431171443,2,0,0
23,0,0.38032309657699637,0.46063511251811207,0.6385314880873554,0.4425806190007248,1,2,0.6484964454357396,2,1,1,2,0.9626558697023029,1,1,0
24,1,0.4095228910208564,0.436275816601281,0.6760807077883995,0.3960978807598823,2,1,1.0832442088722019,1,1,2,1,1.9974984778659746,1,0,0
25,1,0.4051660207626875,0.4566786963853582,0.7140193586558263,0.3926151333499708,2,1,0.6651630970095539,1,1,1,2,1.203322402946469,2,1,0
26,1,0.4134134047142272,0.4691951855045217,0.6971682860566304,0.3987137584556271,2,1,1.0946195389192326,1,1,2,1,0.7582920462946277,2,0,0
27,1,0.404176156561437,0.5036746109636587,0.6985478864943244,0.4087794887905084,2,1,0.7374835598952814,2,2,1,2,1.3290505294189643,1,0,0
28,0,0.3611692588474966,0.510548955004842,0.6512082725694279,0.41285822408595974,2,1,0.5883947122406425,2,1,1,2,-1,-1,0,1
29,1,0.3806709029838854,0.5704522192421897,0.6852551897795577,0.3766089658527014,2,1,0.7192994530578289,2,2,1,2,0.00939300883874239,1,1,0
30,1,0.40371836756408863,0.5634343232072709,0.7440319786551296,0.3800462386250313,2,1,0.6203101742553372,2,2,2,1,0.7558747433804456,2,0,0
31,1,0.387045748001245,0.5484945208454071,0.718239003253796,0.4155055685261377,1,2,0.8042820794480576,2,2,1,2,0.9078436468671498,2,0,0
32,1,0.4107770804242311,0.5853869330846043,0.7035919720712744,0.4289188151255204,2,1,0.5856538143307262,2,2,1,2,1.3558566920924022,2,0,0
33,1,0.42125878599927485,0.5748711242834921,0.7078059670103702,0.42136211109421473,2,1,0.5831909304047258,2,2,2,1,0.7213010933705846,2,0,0
34,1,0.42860002581671336,0.5769187390313172,0.7175081013586603,0.43633618461678725,1,2,1.0044750893735,2,2,1,2,0.7960542540818096,2,1,0
35,1,0.47816226573274934,0.6059092545108988,0.6865914003215667,0.45264348001515986,1,2,0.44195046883532996,2,2,2,1,0.7986194688878641,2,0,0
36,1,0.4613358471283049,0.5674592564836742,0.6805996021012457,0.5054641655399159,1,2,0.7752213169410425,2,2,2,1,0.45996523164967584,2,0,0
37,1,0.46562101083445523,0.6026956997066347,0.6810982816052306,0.4555419492402626,1,2,0.6257113731867321,1,1,1,2,0.6172151933888017,1,0,0
38,1,0.4710926629118116,0.6518863057511785,0.640373925791486,0.47778052067110305,2,1,0.7296179677327927,1,1,1,2,0.6571933628006263,1,0,0
39,1,0.4332217991003646,0.6347479921412651,0.6640738090468766,0.5179896884974574,2,1,0.5802426539862608,1,1,1,2,0.6063355191090523,2,1,0
40,1,0.4297842423113314,0.6441464950781771,0.6833076898628339,0.5345488299392901,2,1,0.46812966620518637,1,1,1,2,0.8461755569260276,2,0,0
41,0,0.3776207916329568,0.6415616338881511,0.6597471874013603,0.5533556567328738,2,1,0.4761283790694506,1,2,2,1,1.2648700503473265,1,0,0
42,1,0.365962125580811,0.6464275664251138,0.6499741341166878,0.5359697038017162,2,1,0.638822705864186,2,2,1,2,0.2889670105168989,1,1,0
43,1,0.3619357890928043,0.6511577009557693,0.6249919727090492,0.5227729857584471,1,2,0.5747210125141464,1,1,2,1,-1,-1,0,1
44,1,0.3590468472910042,0.5868986001058891,0.6563925862203848,0.518662230379598,2,1,0.5135703123328312,1,1,2,1,0.49165218488496976,2,1,0
45,1,0.3688318855276898,0.5998245937944623,0.6052959080003495,0.4909603806993825,1,2,0.7240715736588754,1,1,2,1,0.5555676299954939,2,0,0
46,1,0.36142960286893233,0.5379321908668762,0.6116458736153539,0.5263912190245725,1,2,0.547937791277036,1,1,2,1,0.926062769580767,1,0,0
47,1,0.3721676401406675,0.5372890510453576,0.6306963769522594,0.5228528837050883,1,2,0.5800401052529196,1,1,1,2,0.5260634336750627,2,0,0
48,1,0.32280932287775643,0.5495298227845831,0.6636258397554686,0.5311778498944876,1,2,0.5294448806334913,1,1,1,2,1.0725682907695955,2,1,0
49,1,0.333896589198081,0.5436287829987401,0.6451713099385816,0.5296841460842581,2,1,1.1478886483055248,2,2,2,1,0.8541398576362553,2,1,0
