trial,common,reward.1.1,reward.1.2,reward.2.1,reward.2.2,isymbol_lft,isymbol_rgt,rt1,choice1,final_state,fsymbol_lft,fsymbol_rgt,rt2,choice2,reward,slow
0,1,0.5262914028166319,0.701920527907747,0.565345210571055,0.5115025244426004,1,2,0.9698037002044657,1,1,1,2,0.758401830481489,1,1,0
1,0,0.553291268588312,0.692910684260537,0.5821171172468086,0.5412406030475445,2,1,0.4834882380109775,1,2,1,2,0.7198708641353733,1,1,0
2,1,0.5510309731832905,0.7341192442335144,0.587493333974329,0.5172513721888836,2,1,0.4818207613525374,1,1,1,2,0.8067420512625176,1,1,0
3,1,0.5527462373631651,0.7443866634032554,0.5603470436887259,0.516920470651093,1,2,0.5771838842792931,1,1,2,1,0.9922636206938478,1,1,0
4,0,0.5472644026453819,0.7302750856129497,0.5328126331229548,0.4957213890309373,1,2,0.4534310958433707,1,2,1,2,0.8364345461068297,1,0,0
5,0,0.5418721996750779,0.7387820113936019,0.5022515943710233,0.4666780869007605,2,1,0.4175305407225096,1,2,2,1,0.8886041674841181,2,0,0
6,1,0.5252069979098479,0.7450628960311686,0.5109615152029822,0.4359157205987909,1,2,0.4483649733310813,1,1,1,2,0.9167212530828692,1,0,0
7,1,0.5367473397647708,0.7304963917664867,0.5134601686176714,0.44943396221023385,2,1,0.5164266373667488,1,1,2,1,0.840872195339216,2,1,0
8,1,0.5404406299103247,0.7321423547127565,0.5174776655534296,0.48441544972585193,2,1,0.47266080856297776,1,1,1,2,0.7569800681594643,2,1,0
9,1,0.5977184748806802,0.7419370448899151,0.5132201334623772,0.49133668998608,1,2,0.4633967139479864,1,1,2,1,0.6890406575730594,2,0,0
10,1,0.6159495128087102,0.7173529801359043,0.49350493115880134,0.5046737017037642,1,2,0.6566923952314028,2,2,1,2,0.5330784625648448,1,1,0
11,1,0.6343732898036117,0.7335973010675498,0.4699772526296988,0.4871873435888592,1,2,0.5647828567462057,2,2,2,1,0.49986386097498325,1,1,0
12,0,0.6454389274369298,0.7401501013056955,0.43473403939258604,0.5008192357340072,2,1,0.5874269120586177,2,1,1,2,1.2292161591885815,1,1,0
13,1,0.6178878153648881,0.7037514220943222,0.4140080096214631,0.4980259851639084,2,1,0.6130762891707491,1,1,2,1,0.7695169328571865,1,1,0
14,0,0.6815523576389527,0.6978158971594888,0.41392111203192106,0.5265010366878593,1,2,0.5105620941858433,1,2,1,2,0.9522598776256928,1,1,0
15,1,0.6964258683797646,0.6921939954867535,0.3970837947195127,0.506759657174608,2,1,0.46416706160016474,1,1,1,2,0.6498090733193749,1,0,0
16,1,0.7056794621636755,0.7223609192664673,0.3679211990733775,0.46970025690695083,1,2,0.5535433878994809,2,2,1,2,0.47796328774256835,1,1,0
17,1,0.7058962622596502,0.7362763486500856,0.375062081905532,0.5009170871691504,2,1,0.45629937303601764,2,2,1,2,0.5646744888745161,1,0,0
18,1,0.694419127602941,0.7422458206497708,0.3881027569792875,0.5117139308119902,2,1,0.6897273899039646,1,1,2,1,0.7981634815369034,2,1,0
19,1,0.6999217204195864,0.7168100762970482,0.43164253641285943,0.5054486482124552,2,1,0.49387344202295935,1,1,2,1,0.4822210281963635,2,1,0
20,1,0.7207866604693981,0.6831410465050252,0.4021241415607635,0.5383819519170777,2,1,0.6525372873020387,1,1,2,1,0.7075386607666587,2,1,0
21,1,0.7416167073044965,0.715531947389576,0.4291528974647828,0.5733479725852306,1,2,0.6779427612373183,1,1,1,2,0.7943881139462974,1,1,0
22,1,0.733925402706932,0.675823250042654,0.41260188754330773,0.5950207973807,1,2,0.4741764494583549,1,1,1,2,0.5904956245340145,1,1,0
23,1,0.7012061237803624,0.6901110457611856,0.3882360102234399,0.592273542639401,1,2,0.46207607484939217,1,1,2,1,0.8237165651908072,2,1,0
24,0,0.6994103068141695,0.6859684550679164,0.3994028637056916,0.5617595561276127,1,2,0.45281620627974917,1,2,2,1,0.9157972585044263,2,1,0
25,1,0.677801096681117,0.7026006359928787,0.38391879501690584,0.5994650539062052,2,1,0.5234971127056269,1,1,1,2,0.9732141186132139,1,1,0
26,0,0.6686431020688364,0.682406906957771,0.38547613318132123,0.635087902509348,2,1,0.6182915307044823,1,2,1,2,0.8920115672899556,1,1,0
27,0,0.6545032007922664,0.6841779749394976,0.3670116910586194,0.6124457180177978,2,1,0.454460741550065,1,2,2,1,0.7948436212373053,1,0,0
28,0,0.6966895133064684,0.6839267938177092,0.3631447716390377,0.6214185042011099,1,2,0.47193091019926214,1,2,1,2,0.6042888320725979,1,0,0
29,1,0.737142245646466,0.6582852872259313,0.3805376656110875,0.5848263327407617,1,2,0.45733958385517326,1,1,2,1,0.9843017516950567,1,1,0
30,1,0.7415468554192881,0.6303425406036423,0.42827379987740843,0.570662517659466,2,1,0.40806963314844324,1,1,2,1,0.6390803522099304,1,1,0
31,1,0.7387277035923763,0.6075414265669528,0.42569343987175023,0.5293505694087552,2,1,0.3960567980466294,1,1,1,2,0.6857259288999558,1,1,0
32,1,0.7394642026188895,0.599272356536789,0.41034100520549877,0.5159797579603174,1,2,0.6028296390659307,1,1,1,2,1.1005964760815914,1,1,0
33,1,0.7354964822463064,0.6016041964517224,0.38519773757047937,0.5306822200624155,2,1,0.5564367195029263,1,1,2,1,0.640842009303924,1,1,0
34,1,0.7047168610107831,0.5467928864545248,0.38355105189664984,0.4798576826624634,1,2,0.46449427823699807,1,1,2,1,0.8101373766521647,1,0,0
35,0,0.7282900543401984,0.517600511175643,0.3781726478104721,0.44569817844283,2,1,0.8126739093031574,2,1,1,2,0.6091762532496432,2,0,0
36,1,0.7420000045131575,0.5196209353883177,0.430068037497289,0.4306061514638486,1,2,0.5502395261992206,2,2,1,2,0.6159581500787681,2,0,0
37,1,0.7350560374816475,0.5186712858961613,0.4018986852730866,0.4057434770916877,1,2,0.8556832760305042,1,1,1,2,0.7188771398132303,1,1,0
38,0,0.749495450473781,0.5147148905849366,0.45037889600270936,0.3858880463496239,1,2,0.4386345044513291,1,2,2,1,1.298963109644319,1,0,0
39,1,0.7296105020877123,0.4972891713467851,0.4490844089240982,0.34032737877981667,2,1,0.5602766852107379,1,1,1,2,0.609984031586464,1,1,0
40,0,0.7383933152274248,0.5031249947516844,0.4355075874841907,0.2857129648932344,1,2,0.5803836041523027,1,2,2,1,1.171408993627665,2,0,0
41,0,0.7374945773999438,0.5143241102586228,0.4362557737717435,0.29459574420606943,2,1,0.6461789005643368,1,2,2,1,0.7972065841777294,1,0,0
42,0,0.7247320797795989,0.5315877712362447,0.4301627191324142,0.2606018091955944,1,2,0.7703235037533886,1,2,2,1,0.9108232034022876,2,0,0
43,1,0.6990398520098955,0.5489697409550665,0.3812895090201385,0.27821469873646226,2,1,0.6971646255879023,1,1,2,1,0.7576544242165255,1,1,0
44,0,0.737125024544167,0.6011254409668998,0.38725025476369607,0.28679128412135996,2,1,0.5760920553366304,1,2,1,2,0.8711312820914827,1,0,0
45,0,0.7305094881915704,0.6053299777206924,0.3831032947705926,0.2735015265967651,1,2,0.5857277400618841,2,1,2,1,0.6353873924999789,1,1,0
46,1,0.7185482861148942,0.5913155246148429,0.3837747545975248,0.2513402884297504,2,1,0.52050265788057,2,2,1,2,0.8448329051943801,1,0,0
47,0,0.7380223100833226,0.6007988047872388,0.4033273265309455,0.27409091793845874,1,2,0.6606576329922973,1,2,2,1,1.0038112889742479,1,0,0
48,1,0.6992794342058035,0.6204388734986606,0.3910307881561521,0.2574352004180174,1,2,0.6143622143272296,1,1,2,1,0.7574748172983163,1,0,0
49,1,0.6821042407754172,0.6964686025729493,0.41496265279123185,0.29150854574475354,2,1,0.6451456325339677,1,1,2,1,0.9962572333288335,2,0,0
50,1,0.6850231122202836,0.7181365979806741,0.43538846243594737,0.3129575570967549,1,2,0.5747131571879436,2,2,2,1,0.6190899513703698,2,0,0
51,1,0.6891053478282608,0.707093502254885,0.445493038157634,0.3404097960337754,2,1,0.7386861225731991,2,2,1,2,0.724496874236138,1,1,0
52,0,0.7171880509892532,0.6881848833027762,0.43201527196518685,0.38224670812141887,2,1,0.542955031861311,2,1,1,2,0.6967024773675803,1,1,0
53,0,0.6836560310071094,0.7153766733966397,0.4269859807293286,0.35766461842594865,1,2,0.6590411707356907,1,2,1,2,0.6928157233032834,1,0,0
54,1,0.6755435405942234,0.6971800697185135,0.39345484800519737,0.3633578966431141,2,1,0.7352545739395282,1,1,2,1,1.166443692476605,1,0,0
55,0,0.6334685094227299,0.6721023229875263,0.37141962626362,0.3960483214637813,1,2,0.6515526187895375,1,2,2,1,0.6586816550397998,2,0,0
56,0,0.6646094448750106,0.6782081604833899,0.3429256239319456,0.42636143129181286,1,2,0.6502935592052381,1,2,2,1,1.142717467753755,1,0,0
57,0,0.6599828774730521,0.6936744175475018,0.30705209503848874,0.4537286146142949,1,2,0.4918893138410567,2,1,2,1,0.792267243018614,2,1,0
58,0,0.6857432312852779,0.6911081768495126,0.2758023631289357,0.4357998437858588,1,2,0.522705936687089,2,1,1,2,0.9643747415320831,2,1,0
59,0,0.7061692027729614,0.6744414131724827,0.2547995079684311,0.41783723598198863,1,2,0.7108337685158403,2,1,1,2,0.6806335445344303,2,0,0
60,1,0.7079403543461562,0.7125010567412846,0.283582911299015,0.4369640355582454,2,1,0.5897020336333298,2,2,2,1,0.7674488874936287,2,1,0
61,1,0.6977262244366522,0.7107625318418282,0.3039673238871712,0.40659411677390533,1,2,0.4925111461943743,1,1,2,1,0.7395316334568633,1,1,0
62,1,0.7097632066946329,0.696930832071776,0.3017305753906121,0.3613089722876812,1,2,0.5045122087421987,1,1,1,2,0.5754913532100545,1,0,0
63,1,0.6766023873311666,0.6947027167391293,0.295017156491971,0.330550695651568,2,1,0.49247371550791286,2,2,1,2,0.779492210494027,1,0,0
64,1,0.6441411957380945,0.7124382848514875,0.30018207881514636,0.3428530162935929,1,2,0.5632427651617036,2,2,1,2,0.764976651100369,2,0,0
65,1,0.6424913012566895,0.6958426103947866,0.3215843355826194,0.3066893232731771,1,2,0.33013532400218537,1,1,1,2,0.9291174508498443,2,1,0
66,1,0.6640616221943056,0.689026533558188,0.34435776887118547,0.2929073424563564,2,1,0.5023599443366038,1,1,2,1,0.8481192589933926,2,1,0
67,0,0.6896679360265314,0.7164941935623248,0.3239508993606304,0.29520751294351216,2,1,0.7970505223693181,1,2,2,1,0.8468976300937356,2,0,0
68,1,0.6684240573126741,0.7137986188342036,0.31452653362871885,0.2809333845254087,2,1,0.5480860543530071,1,1,1,2,0.8058763157332578,2,1,0
69,1,0.6468225718663565,0.7167802026645651,0.3331123170574424,0.28073793589954077,2,1,0.41104386332972354,1,1,2,1,0.6260257969861414,2,1,0
70,1,0.6136267199036649,0.7262868723884212,0.37096619219509613,0.2567458246676577,2,1,0.513610883876936,1,1,1,2,0.821928344385924,2,1,0
71,1,0.5839934963390792,0.7443144318859279,0.34865785615468026,0.27051192746627206,2,1,0.5950449621013831,1,1,2,1,0.9193528717487425,2,1,0
72,1,0.5831080356917009,0.7380450629673168,0.33484536465865666,0.31461270247073875,1,2,0.8230902049326687,1,1,2,1,0.7822705332964688,2,1,0
73,1,0.6151985702850479,0.7145299770053231,0.3569468079279596,0.2685323608335288,2,1,0.5768141053313229,1,1,1,2,0.8558323950510385,2,1,0
74,0,0.5686373485116478,0.7102105822093527,0.35187964916132364,0.2860406265151208,1,2,0.5674760549263738,1,2,1,2,0.8759257302754122,1,1,0
75,1,0.5703865757132575,0.711021172858065,0.344516249318916,0.27042478869439646,1,2,0.41700560554727417,1,1,2,1,0.7999495893182029,2,1,0
76,0,0.5406309085031462,0.7182349590285849,0.3192540331773266,0.2726333029619451,1,2,0.64230542835503,1,2,2,1,0.7187322468371349,1,0,0
77,0,0.5864058122071145,0.7313447312437907,0.3527999332821796,0.2994511577852004,2,1,0.4518731944981482,1,2,2,1,0.9281937581308739,2,1,0
78,0,0.5538600250634458,0.7285463235785863,0.3816904523737868,0.30441281021556904,2,1,0.5733801418136864,1,2,2,1,1.1164607475866433,2,0,0
79,1,0.5767163116387947,0.7377188834360127,0.33956329235441385,0.32777053431008685,2,1,0.48169397999936336,1,1,1,2,0.9020571783903506,1,1,0
80,1,0.5722204712801164,0.7325396346084387,0.34266922206904393,0.2905134927081887,2,1,0.36850841737668816,1,1,1,2,0.7115603464153537,1,1,0
81,1,0.5770622261559682,0.6913271610519249,0.2995008666848933,0.27070344976601235,2,1,0.4818627199429102,1,1,2,1,0.9715318507969641,1,1,0
82,1,0.56818188823001,0.6678645927255431,0.3071679818698493,0.2582444318330033,1,2,0.7898940168252011,2,2,1,2,0.7357511342406724,1,0,0
83,1,0.563624469531907,0.7020815426794024,0.28678980351391714,0.2772034865015356,2,1,0.43949390091165697,1,1,2,1,0.8758357758870261,1,0,0
84,1,0.5585606904401372,0.7217327027436935,0.2855455694871094,0.28170488141995426,2,1,0.47023234192329255,1,1,2,1,0.7172715445285576,2,1,0
85,1,0.5571298993270348,0.7086560845602854,0.2792191156214163,0.2868440167889393,2,1,0.40228206436222536,1,1,2,1,0.622639527407955,2,1,0
86,0,0.5714161754113627,0.6993043232051197,0.3013164255404275,0.284993178413087,2,1,0.3610705779719865,1,2,1,2,0.9093887629460369,2,0,0
87,1,0.6009356343603486,0.6822093556322733,0.3206396432800028,0.29471516293229916,2,1,0.3840146824877593,1,1,1,2,0.8095010550023289,2,1,0
88,1,0.632228459243903,0.6772405058760516,0.30825835955671255,0.2761539237802526,1,2,0.5904753998893284,1,1,1,2,0.6057048590464547,2,1,0
89,1,0.6161962195152504,0.681797538025901,0.3168077959113155,0.27475582624609274,1,2,0.503920864286556,1,1,2,1,0.6869575191904005,2,1,0
90,0,0.6294865817297427,0.6729289303197183,0.2929204619658592,0.26078958780251793,2,1,0.4706144971460162,1,2,1,2,0.9416512969428368,2,0,0
91,0,0.6125074915374795,0.6742924370694161,0.3242621077188427,0.28907135359529956,1,2,0.6720661436429509,1,2,1,2,0.6925612550148799,1,0,0
92,0,0.637946770834368,0.6992732614423983,0.3010642474758034,0.2946596147194771,2,1,0.5189610569941578,1,2,2,1,0.8353104181069284,1,0,0
93,1,0.6424051154288444,0.7246541315159603,0.27163130288736603,0.2916925759675786,2,1,0.5046697798534296,1,1,1,2,0.5274255235017336,2,1,0
94,0,0.6515985392491911,0.7196388891343528,0.32808876648233126,0.2881627308919583,2,1,0.481815931586425,1,2,1,2,1.0141898520587347,1,1,0
95,0,0.6579849150697129,0.6919751729248684,0.34933674979323553,0.27586147053710475,2,1,0.4992664793126096,1,2,1,2,1.2342324747423845,2,0,0
96,0,0.6106068745916895,0.6884812281769164,0.3609620921593071,0.3200374121100658,2,1,0.3783022769330273,1,2,1,2,0.7639572686466636,1,0,0
97,1,0.6066253014993532,0.6846146606526426,0.419169395840641,0.3305174223389941,2,1,0.4942619363137055,1,1,2,1,0.7973632497078142,1,1,0
98,1,0.6134358782329555,0.6771315611378257,0.41999202793608936,0.3162928070348676,1,2,0.7010417201208838,1,1,2,1,0.6122099499207252,2,1,0
99,0,0.611652806486316,0.7032811563799124,0.42548119014060753,0.3534882531704476,1,2,0.48391537042789423,1,2,2,1,1.0563775548707781,1,1,0
100,0,0.5741159090561434,0.7193238987461936,0.38848074953049805,0.35062445133205644,2,1,0.36286121365992585,1,2,1,2,0.7965421895141844,1,1,0
101,0,0.637430900224815,0.691127151401735,0.3961958751824248,0.38072877040771885,2,1,0.5055998116395131,1,2,1,2,0.7873260906962969,1,1,0
102,0,0.6342235062406809,0.7093602436132271,0.42894492335518,0.40900443596608466,2,1,0.5204293058122857,1,2,1,2,0.524796923438771,1,0,0
103,1,0.6243741503990476,0.7032766017857657,0.4685073030828636,0.3877946458965149,1,2,0.5830873674458417,1,1,2,1,0.8621925929501231,2,0,0
104,1,0.6201132483925877,0.6632063773895174,0.43768332701398593,0.4092059553709744,2,1,0.5767473941905337,1,1,2,1,0.7917350631942099,1,1,0
105,1,0.6202150752779161,0.6758283900945161,0.4310724496958418,0.3910471201071761,2,1,0.4875696920116752,1,1,1,2,0.4946151129415739,1,1,0
106,1,0.6357722956026954,0.6589931459335114,0.4107754178902048,0.3940291134408048,2,1,0.5288050253711845,1,1,2,1,0.751871987056802,1,1,0
107,0,0.6212953900037257,0.6657425718189178,0.4456527775437612,0.37356943125895037,2,1,0.38897002224712196,1,2,2,1,1.019971383637312,1,0,0
108,1,0.5883427900628226,0.6706462744713069,0.416500162978211,0.3603999322987128,1,2,0.45978586025739787,1,1,2,1,0.4454139863983073,1,1,0
109,1,0.5962021579003042,0.7008694114761754,0.42595397896062526,0.37973562770965524,1,2,0.5970879530550519,1,1,2,1,0.6068380428578166,1,1,0
110,1,0.5586224246254925,0.7404807084965472,0.4092189605064185,0.3525824207583097,2,1,0.49458553062504507,1,1,1,2,0.5255654599295667,1,0,0
111,0,0.6019502690406474,0.7360340737221525,0.4171599174892377,0.34951185284951114,2,1,0.3919167831345476,1,2,1,2,0.6842317200907928,1,1,0
112,1,0.5484203747935961,0.7425310904581794,0.4302269257506275,0.348873100554169,1,2,0.529287096374901,2,2,2,1,0.5362513168656733,1,0,0
113,0,0.5754257044266363,0.7360476125563484,0.43960215101271505,0.3468637640028551,1,2,0.5093317113369267,1,2,1,2,0.932426142314398,1,0,0
114,0,0.5531287246367993,0.7461904320462781,0.4380651852995803,0.3511416573766275,2,1,0.5081882642734854,1,2,2,1,0.7952438880820409,2,0,0
115,0,0.5735030362967403,0.7108542306569634,0.4342136541942325,0.3351365013394392,1,2,0.4482427198827281,1,2,2,1,1.1406593837818946,1,1,0
116,0,0.5836870517383445,0.6787966286954283,0.4381092075490555,0.34768639123522727,1,2,0.46854222573711013,1,2,1,2,0.9956157800525034,1,1,0
117,1,0.5614117106448449,0.6980038262062203,0.4476125658289682,0.3334175422508072,1,2,0.7020991369809053,1,1,1,2,0.8372592286259533,2,0,0
118,0,0.5396300638131792,0.6455376661464569,0.44827349330291794,0.3219704982519751,2,1,0.5225323669774298,1,2,2,1,1.0469465314736226,1,0,0
119,1,0.4913475538152343,0.6111490144971177,0.4436938644303172,0.3012847449782807,2,1,0.7214613664009448,1,1,2,1,1.133914012056266,1,0,0
120,1,0.5556198153353354,0.6070552634664281,0.4193165226379951,0.31059989571905655,1,2,0.5870296638186119,1,1,1,2,1.0901460702307304,2,0,0
121,1,0.5450775513582564,0.573289465191182,0.4542579270394352,0.2992423857459132,2,1,0.5672876940589049,2,2,1,2,1.0703304465414476,2,1,0
122,0,0.5067770359926476,0.5683825254492152,0.47278455258569835,0.29504112389665327,2,1,0.4861938124658991,2,1,1,2,0.95722185831346,2,1,0
123,1,0.4817564633119027,0.5362115222958963,0.4603528996547781,0.2809958309710585,1,2,0.4396083059900775,1,1,1,2,0.6572918899173601,2,0,0
124,1,0.46374715918134113,0.5350050255634915,0.4167991622420426,0.273622714681931,2,1,0.5958201395196738,1,1,1,2,0.5522236543820327,1,1,0
125,1,0.4670571659147869,0.5801326665334745,0.40322964025873365,0.28254378623890924,1,2,0.43988360264302173,1,1,2,1,0.5215018156904989,1,1,0
126,1,0.49457598248306356,0.5974702635650371,0.3769916045719288,0.2578097215422064,1,2,0.5158835905685919,2,2,1,2,0.5682545528088667,2,0,0
127,0,0.531162220427384,0.5939326499919799,0.40447747377676374,0.2654434152313865,2,1,0.8958388548626317,1,2,1,2,1.2683442053375984,1,1,0
128,1,0.5240130122844149,0.5646541605016462,0.43467123877040115,0.29787674009316,2,1,0.5188457463345912,1,1,2,1,0.45922711672028527,1,0,0
129,0,0.5318364400681647,0.528735338782504,0.4408335401127429,0.32758403909303335,1,2,0.3840786768860198,1,2,2,1,0.8817588799774967,1,0,0
130,0,0.5212730875116127,0.5123067980152975,0.46338060970532174,0.3396981220103217,1,2,0.40948083035800664,1,2,2,1,1.392523824329146,2,0,0
131,0,0.4922012381770011,0.48833172686260107,0.45949276280796547,0.293260645524823,2,1,0.6991264161024446,1,2,1,2,0.898249813601069,1,0,0
132,1,0.46699418059168174,0.4827748491882933,0.45486827976123,0.33096288086415887,2,1,0.42072935501528264,1,1,1,2,0.8463932214235683,2,0,0
133,1,0.46677718703139615,0.4853860930584862,0.4591079870821621,0.31591613967958665,2,1,0.40357553602825647,1,1,1,2,0.44529656271606655,1,1,0
134,1,0.4912403272808904,0.5016987397371006,0.44980331364156045,0.33040163693214736,2,1,1.1554695588911272,1,1,2,1,0.7175226923527589,1,1,0
135,1,0.4644965692454557,0.5178297798168019,0.4853575566577823,0.3645301676295618,1,2,0.5892899942346048,1,1,2,1,0.6870088354535255,1,0,0
136,1,0.44994277351885903,0.4867577993132439,0.4993331273092816,0.3925317246937226,1,2,0.48138849730912625,1,1,1,2,0.6457556923314769,2,1,0
137,0,0.4468470255224197,0.530163130963768,0.5623061319783048,0.3657296723075949,1,2,0.6907111528344103,1,2,2,1,0.8737450909957261,1,0,0
138,0,0.4748011182414017,0.5238779981695059,0.5623648120655427,0.34349156187435703,2,1,0.4656117653094043,1,2,2,1,0.8566341361811283,2,0,0
139,0,0.4486328815964562,0.5369572972930978,0.5246263624568925,0.3041918075749379,2,1,0.46439647547867935,1,2,2,1,0.9701309168403895,1,0,0
140,1,0.4479479931620771,0.5126113367821441,0.5235806015957896,0.3103258346262531,2,1,0.9699431596936847,1,1,1,2,1.0491630921369506,2,1,0
141,1,0.39107253071119974,0.5301244044794238,0.5206527481749097,0.3204326628839631,2,1,0.35308848432941886,1,1,2,1,0.7547704502849228,2,1,0
142,1,0.3687264521394036,0.4815114004902794,0.5582605435638571,0.3330142291183052,1,2,0.6690777260255345,1,1,2,1,0.6388959155274279,2,0,0
143,1,0.35183527468203213,0.5153662798001821,0.5377191118509301,0.33102663587447423,2,1,0.5798082582959978,1,1,1,2,0.5708900956597063,1,1,0
144,1,0.40378158664235286,0.5319387765906541,0.5423409908573046,0.3648436991607123,2,1,0.42381406608910765,1,1,1,2,0.5748251473833079,1,0,0
145,1,0.39008722788927885,0.5636692679556083,0.5437778797091087,0.3512094584712373,1,2,0.4757156354608014,1,1,2,1,0.7281161800174232,2,1,0
146,1,0.3553428755810195,0.5495885725494745,0.5634300472004374,0.3756065446578853,2,1,0.5277491178130731,1,1,2,1,1.0281650813967644,2,1,0
147,1,0.31556491512688645,0.5213597375849739,0.5631050672821054,0.3476487566111872,2,1,0.40402500611253345,1,1,2,1,0.9097503916636924,2,1,0
148,1,0.32921155335162106,0.5219444675158886,0.5517956992199986,0.34797746891563924,2,1,0.42692534087564127,1,1,2,1,0.5165413443055513,2,1,0
149,1,0.323023967658004,0.5349759464968988,0.5569348126019855,0.35572514723925147,1,2,0.6735829919798562,1,1,1,2,0.7473561559891095,2,0,0
150,1,0.31269231817651644,0.558165367225479,0.5442348423992205,0.3681222170562274,2,1,0.5310264158006248,1,1,1,2,0.49802824809376034,1,0,0
151,1,0.3039236186480405,0.5591622587798255,0.5377272224164122,0.3530313400549221,2,1,0.63894813736988,1,1,1,2,0.6433226977860613,2,0,0
152,1,0.3113910306219994,0.5699230267005951,0.536748929780064,0.34781663840688726,2,1,0.368411520198606,2,2,1,2,0.47940346354607755,1,0,0
153,1,0.2709253006388683,0.5897189032279918,0.5760392187437344,0.3023986887158554,1,2,0.508309612139783,2,2,1,2,0.6539671998525591,2,0,0
154,0,0.28752193697668044,0.6124225336030054,0.5677518454130273,0.28926413476221935,2,1,0.6963317928393735,1,2,2,1,1.0794750044524335,2,0,0
155,1,0.32317138717702726,0.5917433559398624,0.571155652162854,0.3190620394334794,2,1,0.41532937493775535,1,1,1,2,0.9583164039977419,1,0,0
156,0,0.3246937062565557,0.5737552850655474,0.5761736532345206,0.33229217676397027,2,1,0.37414777272351785,1,2,1,2,0.8824670443946161,1,1,0
157,1,0.31707423626825615,0.6340014878015556,0.5676633494274781,0.3551708307571923,2,1,0.4422670920885139,1,1,2,1,0.8705565399559418,2,1,0
158,1,0.3049152169493625,0.6463603855906037,0.5555898972655706,0.32057450684313293,1,2,0.49975096519847284,1,1,1,2,0.6427600300658014,2,1,0
159,1,0.28124832639912656,0.6311810057061149,0.5447416446648803,0.3677788647936606,1,2,0.6131879775057314,2,2,1,2,0.540243722059131,1,1,0
160,1,0.26625375431874776,0.660309936501056,0.5467617625884912,0.3669902996117611,1,2,0.40922636206960306,1,1,2,1,0.5922135118735241,2,1,0
161,1,0.2901489638932153,0.6710287883045107,0.5263620880244342,0.3552354680830647,1,2,0.44788078930378106,1,1,2,1,0.7082776149409256,2,1,0
162,1,0.2947296062738097,0.6915858698950734,0.518298603462982,0.36072251546902684,2,1,0.4279429121670546,2,2,2,1,0.5336036996004623,1,1,0
163,1,0.31208152712498105,0.6896005291472904,0.5370429675539297,0.31642849830471675,1,2,0.4986011790660996,1,1,2,1,0.6736285728948133,2,1,0
164,1,0.31352275947837,0.7289445894945576,0.5325431347026208,0.3297513423382603,1,2,0.46013752758244664,1,1,2,1,0.5017999933588726,2,1,0
165,1,0.3357296532672036,0.7027707490335349,0.5268452666862697,0.37476047783473193,2,1,0.6080518233875409,1,1,1,2,0.6551716227113502,2,0,0
166,0,0.34189822498522177,0.6725270904784297,0.4994558994008882,0.38730843796476366,2,1,0.5216225598360325,1,2,1,2,0.5420186610081146,1,1,0
167,0,0.35734725650841126,0.6923552499334802,0.5212845038850747,0.418385081990165,1,2,0.7364339423866113,1,2,2,1,0.8288789811604147,1,0,0
168,1,0.37018789580358036,0.7091064525541713,0.5188326531781686,0.3970099419945181,1,2,0.43392910507463966,1,1,2,1,0.7022576136732823,1,0,0
169,0,0.3681072464542603,0.7313475693387461,0.4950993931117713,0.36831324354805406,2,1,0.46201238231151365,1,2,2,1,0.7330322779289418,2,0,0
170,0,0.3745152998236949,0.7159380386758942,0.48593190298742117,0.3868960209085564,2,1,0.4422356986106024,1,2,1,2,0.8465200027767423,1,1,0
171,0,0.3449276110841346,0.7279862110598848,0.5005891802431892,0.383057397691555,2,1,0.4649026953111388,1,2,1,2,1.1226353013626067,1,0,0
172,1,0.3417261021004623,0.7108324349541228,0.49950195142574416,0.38736354744260915,2,1,0.5172138891994109,1,1,2,1,0.9616450182475091,1,0,0
173,0,0.38027343478028974,0.7376784763242829,0.5138364555581828,0.394721406285079,2,1,0.4680378170660333,1,2,2,1,0.8777018766659239,1,0,0
174,1,0.385441405791186,0.7256882528829767,0.5033691039838455,0.41320009822949,1,2,0.48018105584742443,1,1,1,2,0.5165374201196755,2,1,0
175,1,0.39700207660182557,0.7474409867826091,0.47451635919726676,0.44937797363757354,2,1,0.4308579777161867,1,1,2,1,0.7604686684035187,2,1,0
176,0,0.39697054587878,0.6878818580434629,0.49118448404679765,0.4481894203326906,2,1,0.43220729355016374,1,2,1,2,1.1885241744876112,2,0,0
177,1,0.36470902590607546,0.6993513985763505,0.49104575338592804,0.4436186428564728,1,2,0.42322755139957735,1,1,2,1,0.6248796331792619,2,0,0
178,1,0.38754874963256797,0.6849920345151033,0.4998570377368306,0.44278279889426275,1,2,0.49124484196090634,1,1,2,1,0.6635400976210803,1,0,0
179,0,0.429099753615665,0.6720331756574569,0.5394589293073384,0.47943627001827693,1,2,0.36458574192784,1,2,2,1,1.0488871917632423,1,1,0
180,1,0.44098765207713914,0.6930439786455769,0.5161967647550112,0.49038230667481064,2,1,0.5900044977197467,1,1,1,2,0.6077264179139092,2,0,0
181,1,0.44352880674061207,0.7080062950534788,0.5122392401611673,0.5240445542052985,2,1,0.47676490209141775,2,2,2,1,0.9424228520374527,1,1,0
182,1,0.49275087800769224,0.713869471547359,0.5226861029858488,0.5627168186440863,2,1,0.643539735388913,2,2,2,1,0.6719441920558893,1,1,0
183,1,0.4434207714488543,0.6776385385580046,0.5353283406745833,0.5219729827014516,1,2,0.6583022165605144,2,2,2,1,0.5960903045470332,1,0,0
184,1,0.43722367399391726,0.6783778176126538,0.5440123209795252,0.5108328274879312,2,1,0.5398090431326636,1,1,1,2,0.8055186112005686,2,1,0
185,0,0.399182351097469,0.642794173893348,0.543460977988184,0.5452454489196596,1,2,0.5918751264043749,1,2,1,2,1.1643478759588106,2,0,0
186,1,0.40322934468274557,0.6575258291259465,0.5651961882991625,0.5944117876282804,2,1,0.4602196336018096,1,1,1,2,0.45384072035903955,2,1,0
187,1,0.39713382049153134,0.6521590428125572,0.5576283329362728,0.6423200376975735,2,1,0.3895266527606509,1,1,1,2,0.8925211075857078,2,1,0
188,1,0.39191372134806524,0.6766855668948846,0.5579488702379412,0.6341527291009805,1,2,0.4122926596610341,1,1,1,2,0.6512610216768735,2,1,0
189,1,0.38512543733581417,0.7441249969672465,0.5510865369186786,0.6300638205187044,1,2,0.3682391579304749,1,1,1,2,0.5325819022637006,2,1,0
190,1,0.41073878958974464,0.7362905524502136,0.5419415721566154,0.6148128052739015,1,2,0.4442038281931673,1,1,1,2,0.4885640200564012,2,1,0
191,1,0.38618909238801513,0.7427152951853297,0.5045550321714514,0.6143878098759674,1,2,0.5496578412758026,1,1,1,2,0.42065117318088596,2,1,0
192,1,0.3969114380894939,0.7234639588780958,0.47464252554150366,0.5987545570437889,2,1,0.5162174481329203,1,1,1,2,0.9925881205872429,2,0,0
193,1,0.34764060798314,0.7180955221774052,0.516212899088544,0.5855276825932014,1,2,0.6349738437993437,1,1,1,2,0.4554324300670487,1,0,0
194,0,0.34924431427456165,0.7494357334182122,0.5048804286173212,0.6025312381589342,2,1,0.5084376009353946,2,1,2,1,0.990145466510512,2,0,0
195,0,0.3712785174913519,0.7487161472921072,0.5120661209649465,0.5928241402411947,2,1,0.3526369012215582,2,1,2,1,1.0209237530907558,1,1,0
196,1,0.32260091274064306,0.7246787135921666,0.5322682081286668,0.599358619289371,2,1,0.4153173005233839,1,1,1,2,0.9957081493239457,2,1,0
197,0,0.3309837318680921,0.7294295547957065,0.541152137482053,0.6318154943934469,2,1,0.6488941345514831,1,2,2,1,0.903956483809452,1,1,0
198,1,0.3158882718463829,0.7481194494038333,0.5218692888587113,0.6356446006985206,1,2,0.4103658849489875,2,2,1,2,0.6094557759479358,1,0,0
199,1,0.3230744907807798,0.7381156772731956,0.5120985507581288,0.6438816989577753,1,2,0.37967604345612926,1,1,1,2,0.837401706718083,1,1,0
200,1,0.3466861950894155,0.7069915480637592,0.5138972708745398,0.6201201001498828,1,2,0.5463778265457222,1,1,2,1,0.5534298884022064,2,1,0
