trial,common,reward.1.1,reward.1.2,reward.2.1,reward.2.2,isymbol_lft,isymbol_rgt,rt1,choice1,final_state,fsymbol_lft,fsymbol_rgt,rt2,choice2,reward,slow
0,1,0.387323407109334,0.35284253725909664,0.42099052459709346,0.5018732995758683,2,1,1.9631782003884837,2,2,2,1,0.34516011112100387,2,1,0
1,1,0.3555096970687257,0.3562625698455493,0.4571314612193347,0.49208457291960883,1,2,0.30880981697328025,2,2,1,2,0.4984911523297342,2,0,0
2,0,0.38820663209607975,0.37451789238908717,0.44196626622774193,0.457710220803627,2,1,0.2854872006791993,2,1,1,2,0.3880019065486522,1,0,0
3,1,0.4111045440114192,0.38036387340224215,0.40316816623490714,0.4369693642687271,1,2,0.4994172590918424,2,2,2,1,0.3105068744107484,1,0,0
4,1,0.3810198073227711,0.3485974364118236,0.3811817986242123,0.4351865125890526,1,2,0.42468153005665954,1,1,2,1,0.3450420838248647,2,0,0
5,1,0.39660724455543894,0.3498782214031448,0.43245905390967343,0.434826630478083,1,2,0.42452184606781884,2,2,2,1,0.47011177577360286,2,1,0
6,1,0.36135268540323806,0.3343403322009739,0.4391154069654604,0.45081692358057107,2,1,0.403097326032821,2,2,1,2,0.5367694268852574,2,0,0
7,0,0.3595370278765788,0.335433758846483,0.46293320033975527,0.415116145052818,1,2,0.40850243284148746,2,1,2,1,0.40979046985466994,1,1,0
8,0,0.3790845776308992,0.37042935884330774,0.41985973376538666,0.43057433921365273,2,1,0.3932738930566302,1,2,2,1,0.3413210544699723,1,0,0
9,1,0.3564235066963708,0.3772254089861923,0.40350216943866934,0.4595290191259765,1,2,0.5248121449180871,1,1,1,2,0.4105384791623692,1,0,0
10,1,0.34688529357317455,0.3953108793308725,0.4106744629339095,0.4572212266661593,2,1,-1,-1,-1,-1,-1,-1,-1,0,1
11,1,0.33768920480335796,0.38111138600101935,0.3734158594386785,0.44553823605550025,2,1,0.643335095189741,2,2,2,1,0.837395816762637,2,0,0
12,1,0.335218400943571,0.3764093605793186,0.37831359275428356,0.44928724458467423,2,1,0.600461604452903,2,2,1,2,0.8664592082873241,2,1,0
13,0,0.34374926376631476,0.3657811693215105,0.39923281808619476,0.4789760657065738,1,2,0.7735442570665327,2,1,2,1,1.0690118579700538,2,0,0
14,1,0.3883039685067602,0.375715458625693,0.4048661689030584,0.47040426900941457,2,1,1.2561310048654377,2,2,1,2,0.7357610330614079,2,1,0
15,1,0.40446301833325177,0.3435749165754216,0.4104698977090037,0.4952019603935411,1,2,0.650774739019198,2,2,1,2,0.6821536993106747,2,1,0
16,0,0.3818633842205159,0.31569163389826005,0.409879725807929,0.4494388577725983,2,1,0.38650498235165287,1,2,1,2,0.6551296745674335,2,0,0
17,1,0.4041795973480065,0.37402111131235927,0.4129749539864809,0.4550859850697349,1,2,0.6501553221105496,2,2,2,1,0.8148815817949071,1,0,0
18,1,0.3806115449888261,0.3810848942013347,0.43740012687804625,0.47747489014978406,2,1,0.6712333067598593,2,2,2,1,0.6892428835726605,1,0,0
19,1,0.37581607886609003,0.3517208463296353,0.45947884547042483,0.47420788644511713,1,2,0.612297538662915,2,2,1,2,0.9156291986851102,1,1,0
20,1,0.4125702010823771,0.35130859421043104,0.4999619584309581,0.4679283137251211,2,1,0.6601161014286845,2,2,1,2,1.0061817928258279,1,1,0
21,1,0.4514435473594168,0.34687451381456125,0.4673222850910963,0.5033186245833756,2,1,0.7852893313888671,2,2,1,2,0.6594233325172354,1,0,0
22,1,0.4588086840294171,0.3693994278400022,0.4593220160386813,0.552918426844904,2,1,0.9077394814585205,2,2,1,2,0.9739035913203224,1,0,0
23,0,0.47394025673786877,0.33499528435901316,0.46036320481420834,0.5734308022978908,2,1,0.6249886425143814,2,1,2,1,0.6270237832550265,1,1,0
24,0,0.46244320354520574,0.3309789071262317,0.4530397018692236,0.5770353559386635,2,1,1.235325298018779,1,2,1,2,0.7710137639141976,1,0,0
25,1,0.4828752295257105,0.34005281202590387,0.4385078837424381,0.5775097205321448,2,1,1.238038416526706,2,2,2,1,0.9522867864066029,1,1,0
26,1,0.4851150174716706,0.35477293359687234,0.44820879242717027,0.5987868285551449,2,1,0.5687457682988679,1,1,1,2,1.1734666186507638,1,1,0
27,0,0.5310334599928466,0.39131271785764626,0.471074156312638,0.5943466454168194,2,1,0.6726804240411184,1,2,2,1,1.3520241077544597,1,1,0
28,0,0.5537883903096843,0.35031352161924945,0.4515584035389175,0.6526228295918576,2,1,1.1498982882421842,2,1,2,1,0.7708682673501244,1,0,0
29,1,0.5434552329878464,0.32806337533130936,0.43388945396089973,0.6610362595931508,2,1,1.2112410887125407,1,1,2,1,0.6295150345949878,1,1,0
30,1,0.5404255730538581,0.35858423044086424,0.39763898229846206,0.7045884499663132,2,1,1.5071569518527212,1,1,1,2,1.162862273616156,1,1,0
31,1,0.5904465301356238,0.37757072626148547,0.41684895225443097,0.7096343791978702,1,2,1.3580350477677712,1,1,1,2,0.7043561128025431,1,0,0
32,1,0.6055740173503527,0.3672261242077537,0.42819644277270574,0.6995495902839146,2,1,1.3340223793034056,2,2,2,1,0.9976802051924096,2,1,0
33,0,0.6209242472549787,0.37108118095209625,0.4370530795400051,0.6807478451928821,2,1,0.5634082781507459,2,1,1,2,0.6347806820404003,2,1,0
34,0,0.6086346966968601,0.40022452975080414,0.3932386762760389,0.6588845108028074,1,2,1.0164818628873036,1,2,2,1,1.1226837897811492,2,1,0
35,0,0.6208234642445118,0.4004227763705158,0.3729430647485268,0.6432824781360651,1,2,1.5098622219979916,2,1,2,1,1.1549161085522428,1,1,0
36,0,0.6422049387648343,0.4425677010998614,0.33284333228368257,0.657524716534507,1,2,0.4647428921757637,1,2,2,1,1.3734205548007594,2,1,0
37,0,0.6286564147364473,0.4649965806092472,0.35292201180928723,0.6613830817281121,1,2,0.8539887641636597,2,1,2,1,0.8534982415139893,1,0,0
38,1,0.6210025257048599,0.4222642557632894,0.3142622792181189,0.6965559386809903,2,1,1.1925127830204474,2,2,1,2,0.7548174606745306,1,0,0
39,1,0.6514837293619019,0.4342777199296641,0.3178066441635571,0.7191943474553754,1,2,1.1604802956294407,2,2,1,2,1.165405143031876,2,0,0
40,1,0.6575350028591399,0.42602538029840065,0.31303653042013435,0.7094240288312057,1,2,0.5152471041806166,2,2,1,2,0.6692609529177389,1,0,0
41,1,0.6140029935752218,0.4092688599648562,0.3097294318903616,0.7350769337354099,2,1,0.5815850854551172,2,2,2,1,0.7195807284065268,2,0,0
42,0,0.6111782614669921,0.46598617361617667,0.32711130990869597,0.7370011498051815,2,1,0.4986324228530066,1,2,2,1,1.775328250210805,2,0,0
43,0,0.6057043042640982,0.4672068820885323,0.32769571538983444,0.7327439181578109,1,2,0.7306931039761366,1,2,2,1,0.8261355297477166,1,1,0
44,1,0.6131758300026624,0.4625316289089929,0.3379901123652344,0.7432955941038191,2,1,0.62402269021959,2,2,2,1,0.91388142875212,1,1,0
45,1,0.5992188775732628,0.48591258873490334,0.3009093290611913,0.7177149557903227,2,1,0.7036769275955521,2,2,2,1,1.9697358090288617,1,1,0
46,0,0.5804702618186957,0.46390047968210024,0.32166459290010846,0.696483553729397,2,1,0.5705204037799376,2,1,2,1,0.5486168317793272,2,1,0
47,1,0.5658010804221836,0.4802312199901633,0.3209211163909198,0.6877695323835202,2,1,1.007521146054387,1,1,2,1,0.543084641871701,1,1,0
48,0,0.5868423432540393,0.4282528960092673,0.3064870444803591,0.7065243381251486,2,1,0.6580390021349558,1,2,1,2,0.5667981669848814,1,0,0
49,1,0.5873339942370512,0.4459215931970098,0.31154859707815585,0.6805132900702646,1,2,0.6337480186657558,1,1,2,1,0.8598276439247456,2,0,0
