trial,common,reward.1.1,reward.1.2,reward.2.1,reward.2.2,isymbol_lft,isymbol_rgt,rt1,choice1,final_state,fsymbol_lft,fsymbol_rgt,rt2,choice2,reward,slow
0,1,0.3614267556748786,0.6002377577387555,0.3759193616366566,0.46746182674525977,1,2,0.39434934825249,1,1,1,2,0.521241637703497,1,0,0
1,1,0.34784046817361336,0.5754685270797522,0.39765307860243737,0.46766395413560236,2,1,0.7457505555744319,2,2,1,2,0.7260514262015931,1,1,0
2,0,0.3281740280889016,0.5823367321897851,0.3955504707967683,0.4196335093527235,2,1,0.5172211546409926,2,1,1,2,0.5086718550487603,2,1,0
3,1,0.35987048464766425,0.5674241996921168,0.42596220999100276,0.4004919440036643,2,1,0.5195186166570238,1,1,1,2,0.4537138831183256,2,1,0
4,0,0.33835450456532334,0.5610617824128186,0.4279023075776207,0.4013578193598341,1,2,0.5552453433451774,2,1,1,2,0.48006873972553876,1,1,0
5,1,0.3957256969148487,0.5533800443497117,0.42591239850780194,0.3959278573293896,2,1,0.4269817005988443,2,2,1,2,0.38513716249690333,2,0,0
6,1,0.42194157113479236,0.5726168686143953,0.4444630684969427,0.3779970023227661,2,1,0.5612427123273847,2,2,2,1,0.4502240712195089,2,0,0
7,0,0.4529616677343747,0.612304172514977,0.4420642282410123,0.34390052143426253,2,1,1.5303351921916146,2,1,2,1,0.4475197009405747,2,1,0
8,1,0.4939015171251623,0.5858149683398759,0.4881889982526559,0.334253960070487,1,2,0.5090253339635638,2,2,2,1,0.45124315304383344,2,0,0
9,1,0.4855586879163769,0.5971500254589504,0.4634592375638307,0.3483646044866364,2,1,0.4354905508535012,2,2,2,1,0.42569396272483573,1,0,0
10,1,0.4940501637123962,0.5768832538543442,0.4063883113186111,0.313698795233494,1,2,1.4289048553091561,2,2,2,1,0.8928847199908887,2,0,0
11,1,0.471639834067092,0.5962604648066333,0.4454483061906792,0.2965431625211634,2,1,0.7015113563024897,1,1,1,2,1.098434670998813,1,0,0
12,0,0.45655633549192953,0.6121549935831821,0.43172045139016335,0.31589590054723204,1,2,0.9792229259601299,1,2,1,2,1.1736556481459957,1,1,0
13,1,0.45985780493911776,0.5926911352257327,0.4488923792091895,0.3171008471788719,1,2,0.7051086306209982,1,1,2,1,1.5366362330682932,2,1,0
14,1,0.5090065003066292,0.5981066212894022,0.4422943809838047,0.3038604726261589,2,1,-1,-1,-1,-1,-1,-1,-1,0,1
15,0,0.5093826395313569,0.5877195525114951,0.4401482419641589,0.2534356833209439,2,1,0.5385119956436029,1,2,2,1,0.9406934223943608,1,0,0
16,0,0.559391815772897,0.5848232758476559,0.4610507629573992,0.26546481445952774,2,1,0.4721458011476898,2,1,2,1,0.8715929734066776,2,1,0
17,1,0.5341441192018819,0.5626588600477471,0.45136691480801217,0.30175748861268636,1,2,0.9362624087398217,1,1,1,2,1.3812860233047104,1,1,0
18,1,0.540182368176309,0.5134894389900619,0.40306701064500894,0.32637418087622466,2,1,0.6888000009662392,1,1,2,1,0.9524421438632089,1,1,0
19,1,0.5541589404835497,0.5351108019606122,0.3812673028845901,0.34964912272077364,2,1,0.4971570756456458,2,2,1,2,0.6220066735372711,1,1,0
20,1,0.557770963629892,0.5684971183517109,0.4079635369525044,0.3128614690595848,2,1,0.6919221464954717,2,2,1,2,0.9688105419427302,1,1,0
21,1,0.5469318154280138,0.5877296650522347,0.4296957371557686,0.2738486688446926,1,2,0.6949132844679298,2,2,2,1,0.9264736689906385,1,0,0
22,1,0.607770580101445,0.5963597171731418,0.4131785902350613,0.3044640737197045,1,2,0.5618458300659768,2,2,2,1,0.7347570896517936,2,1,0
23,1,0.588565770568183,0.610683983603989,0.39000527346181646,0.31859281655514493,2,1,0.7539693176677247,2,2,2,1,0.7429574382408646,2,0,0
24,1,0.6056591448935303,0.6290709428626726,0.38675880642240656,0.2757233366856575,1,2,0.8449220686156877,2,2,1,2,0.7325556193486591,2,0,0
25,0,0.6048420618720942,0.6271231188113284,0.37924592902452225,0.2834071352001471,2,1,1.039829014008319,2,1,1,2,1.5835550500391946,1,1,0
26,1,0.6076649428034426,0.6205644666772678,0.33512941103942895,0.3184559531412816,2,1,0.6776948465735586,1,1,1,2,0.9841966852068254,2,1,0
27,1,0.6312828239488073,0.6430145199265885,0.34087347399399615,0.3152255185282893,2,1,0.8061568118196192,2,2,1,2,0.5791943699350668,1,0,0
28,1,0.6226498564416647,0.6294518764113968,0.3290739318958278,0.2615230548232179,2,1,0.6650399391933206,2,2,1,2,1.1553022139069071,2,0,0
29,1,0.6767830980627163,0.5984022985679327,0.362963132487898,0.28486896235099923,1,2,0.6707595963039239,1,1,2,1,1.0090126558129668,2,1,0
30,1,0.6912577405955026,0.6106544506850496,0.36429174349659793,0.2709986258049617,1,2,1.015087301141648,1,1,1,2,1.0228230860675467,1,1,0
31,1,0.7085364716920539,0.5942290517636373,0.36142174910545655,0.29545187775215426,2,1,0.9195000824079216,1,1,2,1,1.2045501882707867,2,1,0
32,0,0.7044916266103334,0.585131851992577,0.35866609138889327,0.2991037960343078,2,1,0.6480406521882287,1,2,2,1,1.0636346567507644,1,0,0
33,0,0.6974618773509516,0.5679664675365217,0.3830380933617821,0.3050666176555939,1,2,0.7043645439216561,1,2,2,1,0.696028961725915,2,0,0
34,1,0.6789071845698562,0.5552616684423666,0.3696779824523406,0.2911332588842426,1,2,0.859190119736013,1,1,1,2,1.392230889649909,1,1,0
35,1,0.6613593039163634,0.5397680308414565,0.39895702167301267,0.28610730108999594,2,1,0.7424436712785791,1,1,1,2,1.1207086723984503,2,1,0
36,1,0.6435746027069142,0.560018750892471,0.340961532382259,0.30973772806300226,1,2,0.841560547527024,1,1,2,1,1.278449015420847,2,1,0
37,1,0.6097582874291314,0.5507930902966778,0.3187641217587558,0.2713767178372559,2,1,1.2819964827190233,2,2,1,2,0.8977691284617322,2,1,0
38,1,0.6055733521027578,0.5607898451221117,0.3072392818726539,0.28057212866180953,1,2,0.7384645431366152,1,1,1,2,1.3087618699182713,1,1,0
39,1,0.6474307213938914,0.5326625464943073,0.26139398549115733,0.26810353888828464,1,2,0.8376001347505735,1,1,1,2,0.98657051798682,2,0,0
40,1,0.6399638862650534,0.5309515257086159,0.27982772378494847,0.28099009755683313,2,1,1.0246454192933925,2,2,1,2,1.2163662246821332,2,0,0
41,0,0.6281683872953385,0.5769862804752309,0.28077008111222146,0.2619477802939931,2,1,0.5398395791335133,1,2,2,1,-1,-1,0,1
42,1,0.6105035289439915,0.5933054872580958,0.2772091479684331,0.29752077840315877,2,1,1.1749850428013815,2,2,1,2,0.5320871918684134,1,0,0
43,0,0.5871523179903329,0.593634149622972,0.2900156889686631,0.3125207407404273,2,1,0.9379679218636738,1,2,2,1,0.7990144850891738,2,1,0
44,0,0.5491800338520398,0.6071218053559042,0.2763049011818035,0.2770406921445747,1,2,0.9516304403605318,1,2,2,1,1.2580498710149186,1,1,0
45,1,0.5602806442496965,0.6395230422033186,0.2855949096002136,0.28492030076990676,1,2,0.8482096338248084,1,1,2,1,0.9011889086705196,2,0,0
46,1,0.5560494959912186,0.6138929030233695,0.2806025247737123,0.28102425333901015,1,2,0.5204969472824814,1,1,2,1,0.6667321704444475,1,0,0
47,1,0.5368906337096759,0.5912290237175932,0.2634165761160694,0.2577653357586287,2,1,0.8459345095034223,2,2,1,2,1.24826596103685,1,0,0
48,1,0.5327120295605319,0.6279049435704536,0.2803351952978399,0.26914015947056447,1,2,1.003721339077856,1,1,2,1,1.3367724326290045,1,0,0
49,1,0.49960894057913197,0.5851369243125815,0.28973680269459134,0.25961577974032957,1,2,0.7643400449042019,2,2,1,2,-1,-1,0,1
