trial,common,reward.1.1,reward.1.2,reward.2.1,reward.2.2,isymbol_lft,isymbol_rgt,rt1,choice1,final_state,fsymbol_lft,fsymbol_rgt,rt2,choice2,reward,slow
0,1,0.6535754184272662,0.37263919963476577,0.38209064630691947,0.3848821692818402,1,2,0.6135641159930856,2,2,2,1,0.6694762865686243,1,0,0
1,1,0.6600706947399992,0.3979532593712157,0.38261196559411426,0.38712918785754574,1,2,0.640808564395229,2,2,2,1,0.5745172113493027,2,0,0
2,0,0.7040810671861885,0.44012271858684804,0.39330001360407324,0.413000668726606,1,2,0.44665862710644433,1,2,2,1,0.4159485146183215,1,0,0
3,0,0.6989939049280931,0.45310666984428793,0.4028686261534729,0.41998378403491066,1,2,0.6075356535361607,2,1,1,2,0.4990263479216992,2,1,0
4,1,0.7036671712558656,0.45006874237288397,0.4530268388591182,0.4186675772993307,1,2,0.5091124235350435,1,1,2,1,0.4240465348639191,2,1,0
5,0,0.6843074299596172,0.4358693127233133,0.45934317513502426,0.41754332434943775,2,1,0.884737765958107,1,2,1,2,0.6915492553848708,1,0,0
6,1,0.6935665865356846,0.43866944048093676,0.4076369912516633,0.4015415099338915,1,2,0.35234613776628976,1,1,2,1,0.5765490365356527,2,0,0
7,1,0.7021924422262685,0.4208812501615562,0.3660134382131901,0.4007812290064581,1,2,0.3600780008359834,1,1,2,1,0.34694916814714816,1,1,0
8,0,0.6843221958732197,0.44286087018183834,0.33028053799400725,0.4531821588109578,1,2,0.7089035358467299,1,2,2,1,0.3370577927635168,2,0,0
9,1,0.6663657571155985,0.42783167737838257,0.32311925894390825,0.47624588240626353,2,1,0.7443767102304264,1,1,1,2,0.3926333885237909,1,1,0
10,0,0.6563318737883299,0.4470433969245273,0.3344494730565601,0.4810052718044772,1,2,0.9475109311351844,1,2,2,1,0.7602862848025325,1,0,0
11,1,0.6376443089146715,0.47733110843723325,0.34856047062614304,0.4589360050945783,2,1,0.9952749725684953,1,1,1,2,0.8694922851918818,1,1,0
12,1,0.626422269304544,0.4911213686509612,0.3515551679946933,0.4710266035595554,2,1,0.4750878792315234,1,1,2,1,0.6797588735757927,1,0,0
13,1,0.6387464618376374,0.4777766926662843,0.3861068334590871,0.4646655593189064,1,2,0.525331103588087,1,1,1,2,0.8687204270727307,2,1,0
14,1,0.663704281819919,0.4913549183297932,0.3916701465058213,0.42119838691819633,1,2,0.5783448065599259,1,1,1,2,0.6843975688129831,2,1,0
15,1,0.6852254829152677,0.5078815243501238,0.4159238592700608,0.3999415406156801,1,2,0.7859628681003414,1,1,2,1,0.7880961185228443,2,1,0
16,0,0.7056122708303467,0.5330834746219402,0.3963291471761594,0.38937606585564355,2,1,0.585740094814355,1,2,2,1,0.7343697221522234,1,1,0
17,1,0.6914038077128333,0.508865450650811,0.36571347417935285,0.4078760491342914,1,2,0.7853866157929588,2,2,2,1,0.6567453064412803,1,0,0
18,1,0.6782143322744325,0.4826060621416306,0.32469391727366137,0.44442451223325696,1,2,1.0490043875470292,1,1,1,2,0.9364969353582637,2,0,0
19,1,0.7164734289615902,0.47626059804244236,0.31610005784746176,0.44055238420188303,2,1,1.1022671256960166,2,2,1,2,0.6619376144244598,2,0,0
20,0,0.7094316201990898,0.4624599783311416,0.3580315034926417,0.41319937823900865,2,1,0.9713869146353318,1,2,2,1,0.4988542872538346,1,0,0
21,1,0.7048447037752492,0.45727670082535976,0.36531931210962604,0.36347202852460603,1,2,0.8777041069670304,1,1,1,2,1.1839237982544546,1,1,0
22,0,0.6762280549989554,0.48109757891929045,0.34998540346772167,0.33463221107543384,2,1,0.645704445051706,1,2,1,2,0.9890089456453097,1,0,0
23,1,0.6986750555303406,0.44408853841768137,0.3286081406603616,0.3115336189894067,2,1,0.8640651294904274,1,1,2,1,0.93553550864317,1,1,0
24,1,0.6957739146802706,0.45438590087995934,0.353946790757887,0.3229418776474337,1,2,0.8985711418035862,1,1,2,1,0.9459847228235958,1,1,0
25,1,0.7065252751046625,0.48522931282365916,0.3616569337287162,0.30520799773447793,1,2,0.631699310399199,1,1,1,2,0.761676052022267,1,1,0
26,0,0.6953594082342358,0.5120624324655851,0.3190176832216327,0.32812760389223133,2,1,0.5993066256942257,1,2,1,2,1.2520945367718923,2,1,0
27,0,0.6757266639439345,0.5372875546639556,0.31042625865894835,0.3143138993554324,1,2,0.5965056591358007,1,2,2,1,0.5425595080878338,2,0,0
28,0,0.716030417619308,0.5492530877994546,0.28023461238905245,0.3192326136816527,1,2,0.5720836094101287,1,2,2,1,1.0274346207193048,2,0,0
29,0,0.7085162522838839,0.5448703912331987,0.3030055647377482,0.32106087699916114,1,2,0.7531913480647745,1,2,2,1,0.6057890868255527,1,1,0
30,1,0.6714811734240755,0.548201466586742,0.305883010768387,0.3209001374108329,2,1,0.7635047248768387,1,1,2,1,1.0402105781085993,1,1,0
31,1,0.6774625257202646,0.5424066831119476,0.2969932659209056,0.37572465075254896,2,1,0.5659679091759244,1,1,1,2,0.8105747882827927,2,1,0
32,1,0.6706852275315334,0.5184990347548082,0.29260908798806673,0.3710066132247283,2,1,0.5095975138742688,1,1,1,2,0.8555934055484613,1,0,0
33,1,0.7064203537940149,0.5343892807069911,0.29372452849224,0.3551875590113982,1,2,0.6559689204095775,1,1,1,2,0.6259385984903929,2,1,0
34,0,0.702143431625994,0.577380269193362,0.31755421368684256,0.33732300420903827,1,2,0.6315088362207462,1,2,2,1,1.1002051144278084,1,1,0
35,0,0.717798788329663,0.5096848775657574,0.349325548682944,0.32439233693500635,1,2,0.7993283596733818,1,2,2,1,0.5160950680469796,1,0,0
36,1,0.7266268953737806,0.5468387464282681,0.3802326556280504,0.3294236303778859,2,1,0.6122579642205892,1,1,1,2,0.968949086644443,2,1,0
37,0,0.7393346267236842,0.5168167222941737,0.40294416969817937,0.41099176472234616,2,1,0.7026849010726437,1,2,1,2,1.0887476851048632,1,0,0
38,1,0.704201771133803,0.5225974272041578,0.4107848138933522,0.4374959097248529,2,1,1.3318452601060926,1,1,1,2,1.144817427029011,2,0,0
39,1,0.7424273913906114,0.5473593083111952,0.4336110157891013,0.4482686208631179,1,2,0.8145687088053819,1,1,2,1,1.0513401865800915,1,1,0
40,0,0.7377770564337944,0.6024697882282725,0.43322784195621766,0.40721895281867493,2,1,0.6357445472613108,1,2,2,1,1.8830449304741705,1,1,0
41,1,0.7426209453397195,0.6179670551719643,0.46520860970428224,0.4342454764375916,1,2,0.649080154612875,1,1,1,2,1.1258346074378096,1,1,0
42,0,0.7365481200857138,0.6118902684545993,0.5112639525969874,0.46973545252426835,1,2,1.4782414192291071,1,2,1,2,0.9419126203483756,1,1,0
43,1,0.7498628219508661,0.6106359839778397,0.512158603420994,0.4853888203870086,1,2,0.923589668511795,1,1,2,1,-1,-1,0,1
44,1,0.7491554886350577,0.6405259999189222,0.4843574697765618,0.5014942584391409,1,2,0.7450389928717414,1,1,2,1,1.163013899181351,2,0,0
45,1,0.6789156586649039,0.6236520961018548,0.4796814804628351,0.5451983957070518,2,1,0.46217910308087085,1,1,2,1,0.5521321184442058,1,1,0
46,1,0.6900583058825909,0.6371106812544794,0.5103461716028499,0.509172049604766,1,2,0.7603907286465983,1,1,1,2,0.8691167703309475,1,1,0
47,0,0.6699043236330509,0.6279445680280098,0.5537124605206218,0.5310397647202606,1,2,0.7227909447792626,1,2,1,2,0.9301729511576013,1,0,0
48,0,0.7055552412694563,0.6618457965113569,0.5070325868425569,0.5507835487547944,2,1,0.6692112527675818,1,2,1,2,0.4792547660049422,2,1,0
49,1,0.7113831509262368,0.6967379056075909,0.4924174040152449,0.582345162699375,1,2,0.7754396980185447,1,1,1,2,-1,-1,0,1
