trial,common,reward.1.1,reward.1.2,reward.2.1,reward.2.2,isymbol_lft,isymbol_rgt,rt1,choice1,final_state,fsymbol_lft,fsymbol_rgt,rt2,choice2,reward,slow
0,0,0.4710313660434769,0.43013744433844414,0.4096449997051537,0.6140734208108253,2,1,0.8301944316908703,2,1,1,2,0.8320569140805674,1,1,0
1,0,0.4366554816000012,0.39696259514295185,0.39805448305799307,0.6037044445987247,1,2,0.874364846716162,2,1,2,1,0.6517194153684613,2,1,0
2,1,0.4077660972850916,0.40337705977544497,0.428500060452671,0.6077777527682783,1,2,0.4864502142154379,2,2,2,1,0.9655123803759125,2,0,0
3,1,0.4084256395254062,0.4119273289384263,0.4286328724434373,0.5951821479345292,2,1,0.6053360573268947,2,2,1,2,1.0284283637056433,2,0,0
4,1,0.3762294436378468,0.406206145919183,0.43446572214867035,0.5718341230113517,2,1,0.617625422491983,1,1,2,1,0.9500534746766789,2,1,0
5,1,0.39590198783793706,0.37983052683985585,0.4450321886321615,0.584746455615454,2,1,0.6057423622378337,2,2,1,2,1.0367914228008885,1,0,0
6,0,0.39722789164868844,0.388819830727266,0.43319074035262894,0.5519630601398002,2,1,0.6314129238162423,2,1,2,1,1.0331075111162136,2,1,0
7,0,0.36861659406962466,0.42867262617453233,0.42288221795066194,0.5452536919820186,1,2,0.7209639146303743,2,1,2,1,0.6214143818051525,2,0,0
8,1,0.3528222771926648,0.42715831210512256,0.44761821605536506,0.5255159774726548,1,2,0.4610612889528056,1,1,2,1,0.822754463543788,1,1,0
9,1,0.3817200117991941,0.4575448662581063,0.46069916167137426,0.5168818431767159,1,2,0.4251449612002034,1,1,1,2,0.9281193485958283,1,0,0
10,1,0.3586347776928933,0.4681309637074369,0.4227738625510664,0.46561766556051554,1,2,0.5892329802463792,2,2,1,2,0.580241748402841,1,0,0
11,1,0.3566383438210108,0.4495490679538847,0.40989485418415894,0.47084152625174747,2,1,0.6173157131024709,2,2,1,2,0.7524175293101507,2,0,0
12,1,0.3148250835968873,0.40403957991195094,0.43776658944442687,0.44817550025498853,1,2,0.5147680967938868,1,1,2,1,0.7884715056798086,2,1,0
13,1,0.28359148845248483,0.4566168956275078,0.45088279324192143,0.46600026773597136,2,1,0.5508374680748602,1,1,1,2,0.7366597812169857,2,1,0
14,1,0.3042639622608947,0.49803257569097464,0.4320658798983692,0.4473928886632803,1,2,0.5764549021168932,1,1,2,1,0.6234803185116107,2,0,0
15,1,0.28958769400072093,0.509460048302451,0.46744424409736807,0.46131594652240876,2,1,0.7699224488887921,2,2,1,2,0.5770583222620189,2,0,0
16,1,0.2734723398419039,0.4788313283265837,0.46528181978577643,0.48595847974986733,1,2,0.5848086035211963,2,2,2,1,0.578529894653002,2,1,0
17,1,0.28477040052963754,0.4908812585790931,0.4885490193191353,0.45916682825132993,1,2,0.8529082647428368,2,2,2,1,0.5482387466972796,2,1,0
18,1,0.2650634799190885,0.4747862136770491,0.4879739149593305,0.47924736711736826,1,2,0.6516837957697135,2,2,1,2,0.7627737766097198,2,0,0
19,1,0.2590445680818305,0.47206687613142595,0.4980586057761144,0.45727909923056864,1,2,0.6452354410175758,2,2,2,1,0.5962986407503195,1,0,0
20,1,0.26951785416435703,0.4803789744814018,0.5018550928068625,0.43857115458628226,1,2,0.5720184509518731,1,1,2,1,1.0030883399249433,1,0,0
21,1,0.2600172259930935,0.49185876973007386,0.4953635002972785,0.4578663192375498,2,1,0.7841561007771816,1,1,2,1,0.7593576156359632,2,1,0
22,1,0.25300680074111703,0.43756083784531286,0.4685661583537639,0.49489328604233374,1,2,0.5137761815367412,1,1,2,1,0.6221249626069039,2,0,0
23,1,0.2796039510075175,0.416493154124677,0.4694013409046591,0.47067362470683705,1,2,0.5178428529734447,1,1,1,2,0.799598404120843,1,1,0
24,1,0.27233310124618315,0.41638772867154716,0.4700068429992504,0.45282338689215695,1,2,0.5699416472489247,1,1,2,1,0.7263548502878621,1,1,0
25,1,0.3098723927132776,0.396436018314551,0.4521510976022196,0.46392702880795567,2,1,0.9207195279614098,1,1,2,1,0.8051435907509585,1,0,0
26,1,0.3228352732875863,0.38771095964358704,0.45109265504428286,0.4949720933657474,1,2,0.6022869593325595,1,1,1,2,0.6840212594661352,2,1,0
27,1,0.3322438155935973,0.3312942515231847,0.4538917138954507,0.4873931257486823,2,1,0.6169700822538289,1,1,2,1,0.7334030028532652,2,0,0
28,1,0.30265845283234105,0.3197638039092754,0.48253424828247227,0.4853003748453766,1,2,0.6023280124290977,2,2,1,2,0.8362890053467709,1,1,0
29,0,0.2515631875225852,0.34290032916092583,0.5076237233959794,0.5457844926819153,1,2,0.9453531969948017,2,1,1,2,0.6245377376062606,2,1,0
30,1,0.2788980289473679,0.3628042594769221,0.5070469866353546,0.5604363490672876,2,1,0.789662951059654,2,2,2,1,0.6688276895893068,1,1,0
31,0,0.26651594351652164,0.37647527509749773,0.503544872950703,0.5481463422583923,1,2,0.7031402298307512,2,1,2,1,0.8222569966092124,1,0,0
32,1,0.26846248973456044,0.3549806515827698,0.47117979960739387,0.547657581646694,1,2,0.7791874686627125,2,2,1,2,0.8530425928893237,1,1,0
33,1,0.27799899325152366,0.31383375020660464,0.4917511799041695,0.5383019237804185,1,2,0.6953757611045148,2,2,2,1,0.803881811757492,1,1,0
34,1,0.26857150250723993,0.2830586301327833,0.4901055256025755,0.5609038452011302,1,2,0.8383416601691351,1,1,2,1,0.6668589521250397,2,0,0
35,1,0.28755150573710825,0.2961074822938971,0.480477476309477,0.6237638859316721,1,2,0.655863363221215,1,1,2,1,0.6789182992069982,1,0,0
36,1,0.27289100484440554,0.30783496434786334,0.5089341950097771,0.6335645904589183,1,2,0.6732104094962779,2,2,1,2,0.7230084192051436,1,0,0
37,0,0.26325458335560104,0.2850980511598902,0.5044546712031379,0.6371569377932822,2,1,0.6961035479835118,2,1,2,1,0.9805480769491624,2,1,0
38,1,0.2767406318614668,0.2794356529045938,0.5195166712089693,0.6295788789546441,1,2,1.0709666162856593,1,1,2,1,0.9822055957183693,2,0,0
39,0,0.311082330529975,0.31257441565105226,0.5250260742622295,0.6319734402093913,2,1,0.8486897572220187,1,2,2,1,0.6157828629284268,2,1,0
40,1,0.3306601925958659,0.3075879483926762,0.5368987503897318,0.5824098405384501,2,1,0.8767456244495406,1,1,1,2,0.8813170074827212,1,0,0
41,1,0.34654992074761237,0.29552338121596655,0.5445282113619194,0.5393384416391609,2,1,0.6278717923869408,1,1,1,2,1.1869379914105593,2,0,0
42,1,0.30127732668393215,0.2845786253032936,0.4962686104056169,0.5790431475143936,2,1,0.8320886094861635,1,1,1,2,1.1326220280652706,2,0,0
43,1,0.3045034329855606,0.25436256243995703,0.478815262874527,0.5417541008444937,1,2,0.8925269176997972,2,2,2,1,0.7477151386010519,2,0,0
44,0,0.31088067053624263,0.2663662292091771,0.4690017880580244,0.5079249679995614,2,1,0.6860434263280695,2,1,2,1,1.194475158800742,1,0,0
45,1,0.2724107901996762,0.2898915545949972,0.46382798859905394,0.49693050853130805,1,2,0.6208761636362397,2,2,1,2,1.0679609862763755,1,1,0
46,1,0.26760864077569435,0.2832955258446126,0.46992419393797386,0.5128084643240982,2,1,1.137047914095092,2,2,1,2,0.6884827650947045,1,1,0
47,1,0.29784786175906036,0.2834055319358724,0.4908566859496204,0.5578258396038862,2,1,0.7068612704188126,2,2,1,2,0.7299726544115401,2,1,0
48,1,0.28778470363335984,0.311447737364454,0.481972237618423,0.5716253689874174,1,2,0.7322951729711349,2,2,2,1,0.768727381177996,2,1,0
49,0,0.27503709781612673,0.29795958967954994,0.4733352182470729,0.5799645110886014,1,2,1.341651415139495,1,2,2,1,1.0476713989419295,2,0,0
50,0,0.2607766120207349,0.3151930835096084,0.49841714651736013,0.6058449664075296,2,1,1.2288287521396342,1,2,1,2,1.1268009404784607,1,0,0
51,1,0.2691450617037222,0.2876286757356339,0.5270372152356131,0.6415684428107409,1,2,0.9133269519916212,2,2,2,1,1.427201238354428,1,1,0
52,1,0.26105560835938424,0.27118163013897956,0.49955663310769105,0.6465163409597141,1,2,1.3684678410872948,2,2,2,1,0.7598774202842833,1,0,0
53,0,0.27094377740152953,0.2935468956005227,0.5036619542022133,0.649053931971288,2,1,0.8235788459433024,1,2,1,2,1.14544568720612,2,1,0
54,1,0.2655209378554966,0.32831065504833734,0.4660995853515528,0.680834490162527,1,2,0.659976219390046,1,1,1,2,0.957724366491675,1,0,0
55,1,0.2567556475561412,0.35203335603067926,0.4836617717745409,0.6976866468588548,1,2,0.4749849295894819,1,1,1,2,0.6152859997164342,2,0,0
56,0,0.29488262240416613,0.3516425534408456,0.5638941263266428,0.6749626206747528,1,2,0.5990244456097571,2,1,2,1,1.2194351395792182,1,0,0
57,1,0.268582201956046,0.36337183703812526,0.5702691030499311,0.6795793562953256,2,1,1.1552495288706268,2,2,2,1,0.9278588425504495,1,0,0
58,1,0.29936718292087977,0.33360011649671284,0.5623998378898571,0.6345454872089971,2,1,0.613032909188405,2,2,1,2,0.876120168450143,2,0,0
59,1,0.3146230536881272,0.3766993313902646,0.5503705835162256,0.6852535205938661,1,2,0.6519307180706164,1,1,1,2,0.7950267192263709,2,1,0
60,1,0.29290156420789115,0.3860568512398401,0.5530084488398566,0.6981212066944353,2,1,0.8347812096353664,1,1,2,1,0.7193045846952373,2,1,0
61,1,0.3282682643505057,0.3813493280891871,0.5766482012458275,0.7079569372602349,2,1,0.6924021283612092,2,2,1,2,0.8915168907833504,1,1,0
62,1,0.3509998503389362,0.3848768080763704,0.5524855287326234,0.6600633480429998,2,1,0.6939591274167469,2,2,2,1,0.7411022696023792,1,1,0
63,1,0.35005183398951645,0.3861216380492342,0.5759778396830162,0.6250731480853626,1,2,0.9569346981070339,1,1,1,2,0.8387706046551102,1,0,0
64,0,0.35906425131889913,0.355174357447974,0.554286097169731,0.6241563604325446,1,2,0.6518588751514471,1,2,2,1,1.4909732994883598,1,1,0
65,0,0.32000665481905877,0.3395686768869077,0.5527868172278811,0.5968936197265311,1,2,1.0961973663834215,2,1,1,2,0.775480313681328,2,1,0
66,1,0.31181442490017197,0.3233344147886803,0.5106166609900422,0.6409186945990188,2,1,1.159259450438185,1,1,2,1,0.5932157343231665,2,0,0
67,0,0.3326239818597073,0.3052442964264026,0.4927784376874249,0.6349599347887442,2,1,1.022375748729246,2,1,2,1,1.3682574439671953,2,0,0
68,1,0.32859057974736716,0.30841462485523086,0.5127220494738746,0.6826316341982638,2,1,0.7760574719204669,2,2,2,1,0.7832185205006681,2,1,0
69,0,0.3553848918066082,0.27806804586308664,0.4881495873040613,0.6867891555298865,1,2,0.6547494961187112,2,1,2,1,0.8779799340918544,1,0,0
70,0,0.369446073245272,0.2918844328771616,0.4897066546873142,0.6738369367641144,1,2,0.6244710263244997,2,1,1,2,1.1701587456827838,1,1,0
71,1,0.36235669939408455,0.3162152896867445,0.4765203203215407,0.6750717543676605,1,2,0.7486877347537302,1,1,1,2,0.651856158402552,1,1,0
72,0,0.3581124114104246,0.27108133530374956,0.4754359391074645,0.6602636998606459,2,1,0.6220854188159137,2,1,1,2,1.2611692344471521,1,0,0
73,1,0.3385682255832392,0.29729517104338815,0.429241596536277,0.6685264952526263,1,2,1.0290447638744809,2,2,2,1,0.8149489417201039,1,1,0
74,0,0.33520982029064306,0.28011011033448474,0.4715624692907566,0.6658203148553006,1,2,0.9346624877025533,2,1,1,2,1.2218192377831656,2,1,0
75,1,0.35786845511345405,0.26975748791440957,0.49002651458085217,0.6958835315450316,1,2,0.592329470418008,1,1,1,2,0.6367896720075805,2,1,0
76,1,0.346153980433171,0.27578685957041826,0.4701769712029227,0.6823712168064686,2,1,0.7404218749015854,2,2,2,1,0.9342118092254168,2,1,0
77,0,0.37106679958529487,0.2512124532497979,0.4363447104203513,0.6864873045101165,1,2,0.605903857874182,2,1,1,2,1.173020387993347,2,1,0
78,0,0.44190248353608613,0.26420153942217156,0.46237354945866277,0.6437172329705094,1,2,0.8476226785760446,1,2,1,2,1.0947710731425104,2,0,0
79,1,0.4582738111950377,0.28469194003920417,0.4260431557528124,0.6405686492267737,1,2,0.683830483312704,2,2,1,2,0.6083154254292822,1,1,0
80,0,0.442818414391543,0.2642954052693256,0.46975781495922175,0.6831558798196482,2,1,0.6294097741993028,2,1,2,1,1.183151446985903,1,0,0
81,0,0.42840259425503513,0.26646387775336566,0.44289230570308113,0.6763094774756293,2,1,0.5508486369317325,2,1,1,2,1.264650597398031,2,0,0
82,1,0.49091101304915813,0.2676670785591251,0.4611977964447177,0.680895785768445,2,1,1.1684749650066806,2,2,2,1,1.1198548169322748,1,1,0
83,0,0.4772333215505875,0.2573744210693174,0.475029870440679,0.6890612898176477,1,2,1.0636214324931643,2,1,1,2,1.2094915362704342,1,1,0
84,1,0.45696713117581966,0.2804178588962317,0.44304637955269177,0.6722968175110013,2,1,0.6467224083189649,1,1,2,1,0.845813625583105,1,0,0
85,1,0.4406593391103979,0.3066990185666515,0.4401003780147339,0.6712448401757096,2,1,0.6029419977094221,1,1,1,2,0.7407829006606335,2,0,0
86,1,0.4474992102468487,0.3120896636069408,0.4318024031193306,0.6218167000639552,1,2,0.7726301420889286,2,2,1,2,0.9209622242087789,2,1,0
87,1,0.41368944981193856,0.26968079299285197,0.42785348790591815,0.6302917270027364,2,1,0.5420255416665896,2,2,2,1,0.9599276499548068,2,1,0
88,1,0.39877792867741046,0.28322298440998916,0.3955230733867723,0.598333631436464,2,1,0.749164976999964,1,1,2,1,0.8869210570082942,2,0,0
89,1,0.39446587609247974,0.29469137827199493,0.3873431589325951,0.5601280772624486,1,2,0.5879715031142041,2,2,1,2,1.2670636742586794,1,0,0
90,1,0.43234887112504705,0.33724509043022566,0.36472428710005866,0.5626643423174006,2,1,0.6883161378218574,1,1,1,2,1.1167580248993545,2,0,0
91,0,0.4546064445873711,0.3575201701817662,0.3734405375187733,0.5913060847701465,1,2,0.6206959526170976,2,1,1,2,0.8944533946232696,1,0,0
92,1,0.4786841312182212,0.3733763849266568,0.33972879840032544,0.5469438900147301,1,2,0.555590873293113,2,2,2,1,1.159903923679849,2,0,0
93,0,0.47410724707978336,0.34969516413559276,0.34124700163199667,0.5583614986042696,2,1,0.6291384011574337,1,2,1,2,1.838894971388072,1,0,0
94,1,0.47548552692474727,0.35152644600913097,0.3372372950890803,0.48835197211734016,2,1,1.297725507526593,2,2,1,2,0.7850145934698958,2,0,0
95,0,0.46857347517762227,0.3200577614069533,0.3372507385040587,0.47659579319445466,2,1,0.4594098074039721,1,2,2,1,1.2290817116609105,2,0,0
96,1,0.47433629053515297,0.3119474514358207,0.34785249313715594,0.49840949743018265,1,2,1.0797066997747606,2,2,1,2,1.4202696041365925,1,0,0
97,0,0.4263010753685703,0.32664460604936185,0.33844745170848034,0.5309242108923209,2,1,1.316350633289403,1,2,2,1,1.705074555140527,2,0,0
98,1,0.4425495813593611,0.3056290943702229,0.3225148098335284,0.5083715231891159,1,2,0.7264777077161853,2,2,1,2,1.6135472803380253,1,0,0
99,1,0.44881350159932376,0.3167591036280155,0.33125030236500536,0.5282796812389077,2,1,0.714872963306334,1,1,1,2,0.9353404675157435,2,1,0
100,0,0.4319330895562463,0.329037867367652,0.3179586501010583,0.5079252221707646,1,2,0.7218106347445428,1,2,2,1,1.50761851893094,1,1,0
101,1,0.4263519882231923,0.3247230946594506,0.2861783068170367,0.49076442774632456,2,1,0.7021667280960173,2,2,1,2,0.5733104160453877,1,1,0
102,1,0.4300197227164103,0.33073553772031783,0.28080269432759364,0.4715196692983228,1,2,0.8715587468304875,2,2,2,1,0.7480858239123336,2,1,0
103,1,0.4229864088292672,0.31468057495954005,0.2988421372577217,0.4979827554812521,2,1,0.7664631217921851,2,2,2,1,0.8535258723559309,2,0,0
104,1,0.4218304150993655,0.31264857439608273,0.2648610126354747,0.48705182063936947,1,2,1.1732854219553701,2,2,2,1,0.7405785407609073,1,0,0
105,1,0.44964294279613376,0.2967182151293266,0.25934461826116784,0.5242000997980282,2,1,0.6442480536752555,1,1,2,1,0.8459382941773583,2,1,0
106,1,0.47228555743309414,0.29601972797137455,0.26339442941185665,0.5394479462428048,1,2,0.6003613879929617,1,1,2,1,0.7140522032386798,2,0,0
107,0,0.5071313975819031,0.308178181935537,0.25424053890356446,0.5528075562450843,2,1,0.6631913409355548,1,2,1,2,1.1769657113072753,2,0,0
108,1,0.47963358644158527,0.26508212644274387,0.2804104495681016,0.5409755925580209,1,2,0.9874253761863656,2,2,2,1,0.6133190734190066,1,1,0
109,1,0.49908393861927874,0.26569250963326513,0.2785225206994979,0.4955147422597608,1,2,0.6662887366910581,2,2,2,1,0.7000530973500645,1,0,0
110,1,0.5242246768917216,0.2559426613492872,0.2624751948060553,0.517228182455165,2,1,0.6917322987947045,1,1,1,2,0.7761607083830313,2,1,0
111,1,0.522426213588254,0.2513105991362514,0.31088286185068464,0.5279093209954204,1,2,0.7227207456699034,1,1,2,1,0.6524556543545259,2,0,0
112,1,0.5447038622354423,0.2620165058645949,0.28575505241037646,0.5231772093568741,2,1,0.6041002383790328,1,1,2,1,0.6938302327680503,1,1,0
113,1,0.5063460833491049,0.28203751689034634,0.302414911141961,0.5948506029160655,2,1,0.5282809046047987,1,1,1,2,0.767331274037133,1,1,0
114,0,0.531092696295641,0.2897657543467963,0.3404534625994237,0.6020469478854542,1,2,0.6656309815643908,2,1,1,2,1.0834217031424487,1,0,0
115,1,0.48757617650538565,0.3407180158638279,0.35667013895941857,0.5850960548914472,2,1,1.4033466725704784,2,2,2,1,0.8320403117259048,1,0,0
116,1,0.49353293394710634,0.3564134691414678,0.3332183481276716,0.5812974584564867,2,1,0.7197142100767451,2,2,2,1,0.7375309520730298,2,0,0
117,0,0.4882792408992864,0.38671338781213704,0.32778355039671814,0.622981630161706,2,1,1.065213749285249,1,2,2,1,1.1871233340671097,1,1,0
118,1,0.46122999698875433,0.4360744896165889,0.25211254736236244,0.6129629317657113,1,2,0.6456933641593423,1,1,1,2,0.9167796381470907,1,1,0
119,1,0.44924570200096947,0.4007469146390781,0.2557576613431114,0.6502367441597321,1,2,0.8311075612255081,1,1,1,2,0.6809329195421014,1,0,0
120,1,0.4788164940407243,0.4038757524066988,0.27593953957934136,0.6442005914865849,1,2,0.7206273396113829,2,2,2,1,0.901086186448083,1,0,0
121,1,0.48267437724550954,0.3905580743037915,0.2819824506587467,0.6357604973911635,1,2,0.5515652549529477,2,2,2,1,0.6332784248170356,2,1,0
122,1,0.47769159402772265,0.4209076248464553,0.2980626086276236,0.6169695908771677,2,1,1.123540237920679,2,2,2,1,0.4882453816017005,2,1,0
123,1,0.47654225956612617,0.4401619047371871,0.29920061289321215,0.6035141635296548,2,1,0.5037836767451154,1,1,1,2,0.6015815101682165,2,0,0
124,1,0.45756173917360843,0.42395306475808625,0.31063940446721366,0.5645489174966274,2,1,0.5852493205866267,2,2,2,1,0.6803095765699254,1,1,0
125,1,0.4720195231288862,0.4466873373637978,0.31200683576970667,0.5558770519334333,1,2,0.6987098158861045,2,2,1,2,0.5965232253365684,1,1,0
126,1,0.4727802757920221,0.4523711264208088,0.2933220589257646,0.5157088705260935,1,2,0.7082332286781821,1,1,2,1,1.1340160221780025,1,1,0
127,1,0.45272633676086027,0.44943815217942706,0.2959259383930665,0.5144226025036156,1,2,0.5712936826830628,1,1,1,2,0.7916866272253174,1,1,0
128,1,0.432913952390898,0.444925605330837,0.25126174431773096,0.5191315339253069,1,2,0.7114685749111231,2,2,2,1,0.6598913964480744,1,1,0
129,1,0.40681479032910417,0.3936152180970063,0.26422428162732375,0.5218838856833077,1,2,0.6035197596702346,2,2,2,1,0.5732216689111738,1,0,0
130,0,0.3745401352876181,0.41622035168087584,0.27398953765006023,0.5146920756153153,2,1,0.7141533266740225,1,2,1,2,1.2839337801478905,2,0,0
131,0,0.3765730459578513,0.3672461723092115,0.3020590065171362,0.535662098370441,1,2,0.6171753477356106,1,2,1,2,1.133522177577106,2,1,0
132,1,0.35165419394635755,0.3616766067964079,0.2858094106347111,0.5327641856490402,1,2,0.5494914698610955,2,2,1,2,0.6392184456390169,2,1,0
133,0,0.36520937534291076,0.3404562209956463,0.30457237933831965,0.4891800293889741,1,2,0.7348465021705124,1,2,1,2,1.2459328003069459,1,0,0
134,1,0.3407062616906442,0.33454622491517405,0.3056856280415103,0.4770268142117937,1,2,1.0790863754136808,2,2,2,1,1.089015489393205,1,0,0
135,1,0.32802550672938713,0.3075613542274982,0.3134483494973207,0.5239296730180718,2,1,0.7502112272368322,2,2,2,1,0.5039844143129812,2,1,0
136,0,0.3388966414126333,0.3356386977751446,0.3274010448257321,0.4895122781604342,1,2,0.4688870354621031,2,1,2,1,1.0225701472145374,1,0,0
137,1,0.3242205297226328,0.34576256206796385,0.3349467367452122,0.5176266029524031,2,1,0.7690295440415866,1,1,1,2,0.7815329286586348,2,1,0
138,1,0.37407681488686795,0.346245771135636,0.36718443700436426,0.46130825035792244,1,2,0.5199374664744028,1,1,2,1,0.6603529419217011,2,0,0
139,1,0.39343031175143345,0.34173237629583464,0.3800729778006237,0.4467440779789409,2,1,0.6839608872660392,2,2,2,1,0.5017319275066257,2,1,0
140,1,0.3865473637321304,0.32766523122015534,0.3798481665362019,0.4381851113246915,2,1,0.5119885606754906,2,2,2,1,0.564446267684616,2,1,0
141,0,0.4008806785218088,0.3814734389292874,0.3349261609794687,0.43303039344143857,1,2,0.601311948293187,1,2,2,1,1.0830190205642793,1,0,0
142,1,0.3906638542938843,0.38726066501779266,0.32904036859054697,0.46601901211360847,2,1,0.8374792432823597,1,1,2,1,1.0953050652578895,2,0,0
143,1,0.39704539887998835,0.37863038503365454,0.311511815424917,0.4596134536945453,1,2,0.7271584042782706,2,2,1,2,0.8782724374041209,2,1,0
144,1,0.42294805916781375,0.35254136031061156,0.2935502978864637,0.40736366433922555,1,2,0.7285840937965986,2,2,2,1,0.6557076029421296,2,1,0
145,1,0.4226059665199413,0.36491142325429554,0.30559910127889184,0.40601220742686195,2,1,0.5727329559467762,1,1,2,1,0.6118001088507299,2,0,0
146,1,0.4101399172389688,0.35383281413486456,0.3124274930208521,0.3987378731180029,1,2,0.5182102178132482,1,1,1,2,0.7865842706878539,1,1,0
147,0,0.4480366728569951,0.3510205157633268,0.3297220161859892,0.3680448242541332,1,2,0.46625239262539253,1,2,1,2,1.3292328534644184,1,1,0
148,1,0.4436089068078948,0.3541593448547343,0.331063215278017,0.413991519806436,2,1,0.4731595761022618,2,2,2,1,0.5708583991163323,1,0,0
149,1,0.4271624739166733,0.3596623147542875,0.3377371151949,0.3783792089993969,1,2,0.7679132620523887,1,1,1,2,0.5963409012911143,2,1,0
150,0,0.4347433551937684,0.3247590682069592,0.345583676850372,0.4173576681229642,2,1,0.30537708023712185,2,1,1,2,0.8910100661587421,2,0,0
151,1,0.45496354898771163,0.27649823962108755,0.33598731957425754,0.41473988371700554,2,1,0.5655429287098741,1,1,2,1,0.6686064254736266,1,1,0
152,1,0.39964250492954934,0.2571039246845974,0.2980653630051353,0.41595634151081606,1,2,0.48686980100956134,1,1,2,1,0.5418685739450666,1,1,0
153,1,0.42171861133302946,0.2794370335444265,0.29067254356734784,0.4276891339011969,2,1,0.6775889033478961,2,2,1,2,0.6580156321733739,1,0,0
154,0,0.4487959175270861,0.2716702034723868,0.25903881478932567,0.4848210805736243,2,1,0.4577018778463753,2,1,1,2,0.9847394169801191,1,0,0
155,1,0.47847193530884996,0.2951917001474641,0.2550006880036877,0.48335755214859355,1,2,0.7205567041364702,2,2,1,2,0.6289696608564554,2,0,0
156,1,0.47657272218688584,0.3001731541382674,0.2813844757437232,0.5238690400769958,2,1,0.7432663111349029,1,1,2,1,1.0090823938671747,2,0,0
157,1,0.459608977031325,0.3107962380830676,0.27503674336179373,0.5472843984517428,2,1,0.6275705351063152,1,1,2,1,0.773335591254181,2,0,0
158,0,0.4598174345856987,0.2993758181654158,0.2712805289600442,0.5669195388902736,1,2,0.8851461143085544,2,1,2,1,1.1563455861733019,2,1,0
159,1,0.48428407179096067,0.2948529236137114,0.27211353073195466,0.5893255067294678,1,2,0.9161550877315676,1,1,1,2,0.744686265294149,2,1,0
160,1,0.46018206926037397,0.30336405960569385,0.3090895142388478,0.5724569096349046,2,1,0.7177210218715118,2,2,2,1,0.8901530827706665,2,0,0
161,0,0.429043010941758,0.3036550924891231,0.3086161888333008,0.5748719769024727,1,2,0.8126086133624995,1,2,2,1,0.8491914502092186,1,0,0
162,0,0.4425973008301351,0.3136892621459363,0.35662368137101985,0.5541846942335835,1,2,0.7155971278525612,1,2,1,2,1.213360186888167,1,0,0
163,0,0.4614082588821529,0.29700953663144114,0.37573142123676256,0.5386416611921916,2,1,1.0238762997760205,1,2,2,1,1.0418756676790508,2,1,0
164,1,0.4536442162153247,0.3434238193657689,0.3537445227457463,0.5777683908971407,1,2,0.6256863187227282,1,1,1,2,1.0727967995489962,2,0,0
165,1,0.45094220025034026,0.37675668611344254,0.3999703001397028,0.548018940779476,2,1,0.8432577684679927,1,1,1,2,1.207717801014951,1,0,0
166,0,0.43390125015016245,0.37428872287197823,0.3850270965935012,0.5393551814321236,1,2,0.8209725780407098,2,1,2,1,1.2548032877493824,2,1,0
167,0,0.4672208217229108,0.37872392509621555,0.4261944878844106,0.5523175926043848,1,2,0.8546394375971431,2,1,2,1,1.2752911977631811,2,0,0
168,1,0.46163697942698745,0.3583100201685996,0.4125560338969525,0.5621644918048772,2,1,0.6138923074649938,2,2,1,2,1.004973763750968,2,0,0
169,1,0.44956370754511354,0.3711929826163297,0.3977719130197219,0.5479875542624488,2,1,0.8927946684107155,2,2,2,1,1.1160142393873684,1,0,0
170,1,0.4942471619621405,0.4168283397654542,0.3917446443597661,0.5794894166138813,1,2,0.8038078558120105,2,2,1,2,0.5523404340092384,2,0,0
171,1,0.46767442445435714,0.403043606839238,0.3993542183870105,0.5412201011385132,2,1,0.8159764765759974,1,1,2,1,0.8204536789762642,1,0,0
172,0,0.46065805560425765,0.4381724117335403,0.4357939063738162,0.6109823525076816,1,2,0.6840873670262226,1,2,2,1,1.6058634084993173,1,1,0
173,1,0.4689876373977517,0.4232963339541689,0.415175412180411,0.6236338586548785,2,1,0.573878820315258,2,2,1,2,0.5302203615510734,1,1,0
174,1,0.452205498817865,0.4401887581473966,0.4069968789536538,0.5782461363172513,1,2,0.7460011718239912,2,2,2,1,0.6997098813899356,1,0,0
175,1,0.4812003836021067,0.4454521531673179,0.4726369893189874,0.5949827846069748,2,1,0.5420158821152654,1,1,1,2,0.935775449222092,2,0,0
176,1,0.4639887868749226,0.46592109724092967,0.46469695380221787,0.6362275177873361,1,2,0.43952471381362557,2,2,1,2,0.5078992496637511,2,1,0
177,1,0.47100245059356644,0.3892605032871659,0.48062296591817044,0.6267856443182984,1,2,0.5475619743274365,2,2,2,1,0.6292672958052208,2,1,0
178,1,0.4905098353334385,0.38047996947975493,0.5114440584961019,0.6473108603673168,2,1,0.6609451932099546,2,2,2,1,1.0147308169598546,2,1,0
179,0,0.49195373040054613,0.37325806746656953,0.490520369583892,0.6244677982521751,1,2,0.48385934122507024,2,1,1,2,1.0721692305232864,1,1,0
180,0,0.4876446311744429,0.37781106362394656,0.40150191964717075,0.5780300964013505,1,2,0.9734205349395779,2,1,1,2,0.6019983802143543,1,0,0
181,1,0.45761881046837116,0.4069106783538967,0.4172624582425099,0.5521394235482324,2,1,0.48966744878907775,2,2,2,1,1.0140797027761437,1,0,0
182,1,0.43417922611882265,0.3764633664450061,0.4326854665619569,0.5901593348632874,2,1,0.7871855778057579,2,2,1,2,0.5570331651661036,2,0,0
183,1,0.4624784052356151,0.3597725258982929,0.48541836425673757,0.5985100627603936,1,2,0.6660369846140384,1,1,2,1,0.8277849771629917,1,0,0
184,0,0.5139870385789266,0.33913561666748615,0.5070527585265314,0.6280927815289121,2,1,0.443462792461105,1,2,1,2,1.221126768641625,1,1,0
185,1,0.5043964363061193,0.3229293349764437,0.4849946745705096,0.6574239771613614,1,2,0.43433813805495447,2,2,1,2,0.55868343927159,1,0,0
186,1,0.5226353319315029,0.3378211423717781,0.47672770742815107,0.6150676167581675,1,2,0.6890119274339668,2,2,2,1,0.919972723839237,2,0,0
187,1,0.5077525195179731,0.35404529134368895,0.47685105724707005,0.6194612667017192,1,2,0.3865740677847498,1,1,1,2,0.721551336142511,2,1,0
188,1,0.4802732025188545,0.3150129368974608,0.45954898504035024,0.5600124373719095,1,2,0.4731939882567531,1,1,1,2,0.6615468021900597,2,1,0
189,1,0.4667714146083588,0.2971540689805745,0.49003859095866154,0.5848726766635158,1,2,0.5146084123234687,1,1,1,2,0.7882137163824154,1,0,0
190,1,0.4370776213710146,0.28789133563868075,0.4924126538853294,0.6168373410250136,1,2,0.42006252748797124,2,2,2,1,0.5230831599901649,2,1,0
191,1,0.4583812455962679,0.30087747403936177,0.45265081639793747,0.6413143555704238,2,1,0.7948051532503086,2,2,1,2,0.6366369303395913,2,1,0
192,1,0.47502189251895216,0.2876098004874974,0.44313486282456505,0.659711938223415,1,2,0.5643212972299807,2,2,2,1,0.5847086875292007,2,1,0
193,1,0.4928897681467312,0.2596009117678604,0.4437892148195177,0.635155840148526,2,1,0.5603053384420491,2,2,2,1,0.6207182903317516,1,0,0
194,1,0.48761722046556755,0.2738979829257757,0.4212139793790688,0.6573220327251799,2,1,0.6603381507338781,1,1,1,2,0.7581100241095555,1,0,0
195,1,0.5018190634667049,0.2810810139136478,0.4189346654415478,0.6721823909755918,2,1,0.5764570151432054,1,1,1,2,0.5915132382651791,1,0,0
196,1,0.509361861740072,0.2888779970659964,0.423640970197321,0.6667587703425295,1,2,0.5164817617087465,1,1,2,1,0.846188235088448,2,0,0
197,1,0.5147618687538631,0.2720040561370194,0.422821248490318,0.641952529755184,1,2,0.576721445383555,2,2,2,1,0.7277965384391791,2,0,0
198,0,0.5761342558782143,0.29468886537962463,0.46451160041093015,0.6762320407903434,2,1,0.6181434159734636,2,1,1,2,1.2199253618482544,2,1,0
199,1,0.540509047679874,0.29921871845428044,0.4212152873321997,0.690023918346873,1,2,0.6785295022345963,1,1,2,1,0.6109446347682024,2,0,0
200,1,0.5307932412342347,0.25536538062351677,0.41673586647747873,0.7129137249749365,2,1,1.151920907587737,2,2,2,1,0.53795071998411,2,0,0
