trial,rwrd_prob0,rwrd_prob1,rwrd_prob2,rwrd_prob3,symbol0,symbol1,common,choice1,rt1,final_state,choice2,rt2,reward,slow
1,0.312956112743,0.6879650231190001,0.512557408412,0.5728895869,1,0,1,1,0.216693310891,0,1,0.905207637797,1,0
2,0.293784048869,0.684428758204,0.4967649126730001,0.5589748909009999,0,0,1,0,0.233682324375,0,1,0.348760017242,1,0
3,0.315959364877,0.672224184939,0.512189841471,0.567679762719,1,1,1,0,0.26897465216600003,0,1,0.352124554906,1,0
4,0.327341109222,0.645720044087,0.510299780588,0.5632722921209999,0,0,1,0,0.24035464992,0,1,0.366123941526,1,0
5,0.38371746427,0.647828774143,0.554070647426,0.570770883429,1,0,1,1,0.241102056636,0,1,0.326904408009,0,0
6,0.376902711799,0.656553705328,0.534595730535,0.55161514402,1,1,1,0,0.617789909889,0,0,0.34635599984,0,0
7,0.354179741235,0.653158192243,0.547587910826,0.533783457419,1,1,0,1,0.250603721095,0,1,0.411078221728,1,0
8,0.325931960402,0.662283540888,0.5401041242019999,0.548361141897,1,0,1,1,0.219345155802,0,1,0.299750844304,0,0
9,0.360094819444,0.652457509183,0.55311706322,0.572032877727,1,0,1,0,0.257382301554,1,0,0.444496599239,1,0
10,0.38116346956,0.659173961348,0.5476245607060001,0.549471657611,1,0,1,0,0.215354861222,1,0,0.274526471359,1,0
11,0.370501805811,0.65954119827,0.546709329442,0.5200482978350001,1,1,0,1,0.250836757438,0,1,0.3739360925,1,0
12,0.40090301346,0.660486236218,0.548164097614,0.535348830843,1,1,1,0,0.259443707234,0,1,0.31592000454,1,0
13,0.434215672958,0.6817197356870001,0.574382046477,0.5199898113629999,0,0,1,0,0.22283888978100005,0,1,0.316607944728,1,0
14,0.4671195991100001,0.711956393858,0.5717161907,0.479249950871,0,1,1,1,0.226193164187,0,1,0.301309652172,1,0
15,0.467289955281,0.652180110173,0.5495530402809999,0.446671775637,0,0,1,0,0.338853859649,0,1,0.318010086972,0,0
16,0.436099522747,0.654666417452,0.546938332183,0.447007748269,0,1,1,0,0.275571814435,1,0,0.313389205708,0,0
17,0.437274555133,0.660686847463,0.567767760759,0.452369420653,0,1,1,0,0.276286016492,1,1,0.250086633977,1,0
18,0.456627508974,0.652149249978,0.539999842539,0.448078413296,0,0,0,1,0.231628163348,0,1,0.749450613803,1,0
19,0.477902541329,0.6533165868399999,0.543360656417,0.417192900271,0,0,1,0,0.253801028016,0,1,0.342323746645,1,0
20,0.484798857893,0.685199988012,0.555057515057,0.466322179823,1,1,1,0,0.270549156783,0,1,0.236329037657,1,0
21,0.461576188177,0.6891299611949999,0.590416051605,0.4503689991130001,0,0,1,0,0.313912631898,0,1,0.245014773055,0,0
22,0.473501289782,0.669710802522,0.559754199762,0.503869125759,0,1,1,0,0.26655191941100004,1,0,0.381681834153,1,0
23,0.482053352855,0.700079518054,0.5238615931530001,0.507691507297,0,0,1,1,0.5952635665179999,1,0,0.371862612398,1,0
24,0.492151805955,0.715739508442,0.501494568067,0.544495923486,1,1,1,1,0.24944850078000005,1,0,0.313911122595,1,0
25,0.518170265705,0.708454892265,0.526822173224,0.54791962485,1,0,1,0,0.252819981236,1,0,0.31193695461300003,1,0
26,0.509603757685,0.732282291674,0.557681567669,0.5247364743940001,0,0,1,1,0.242832019435,1,0,0.259301530916,0,0
27,0.488712219596,0.741203182224,0.582820340077,0.476493534822,1,0,1,1,0.235481111378,0,1,0.283979838131,1,0
28,0.4629595663100001,0.7097928156219999,0.568310792322,0.466919694438,1,0,1,1,0.214854678295,0,1,0.225974013429,0,0
29,0.473092082637,0.7000618553210001,0.5930371460930001,0.490849008192,1,0,1,0,0.228889382598,1,1,0.327987181794,1,0
30,0.469678690943,0.730195414864,0.637261737688,0.490544467482,1,0,1,0,0.210858648365,1,1,0.189970804048,0,0
31,0.5040545537910001,0.742155537624,0.6405697399570001,0.492147674466,1,1,0,0,0.214232845567,1,0,0.409305998452,0,0
32,0.476053184554,0.741682990733,0.61645414137,0.49147665488,0,1,1,1,0.273539991089,0,1,0.223365938297,1,0
33,0.457112612393,0.718844990668,0.579093934277,0.511989856203,0,0,1,0,0.202236001821,0,1,0.224011618009,1,0
34,0.49440358843,0.7314100213920001,0.502764138904,0.5272801976529999,0,0,1,0,0.256157653312,0,1,0.23266475246800006,0,0
35,0.479952893429,0.746794518913,0.482322422529,0.527062632796,0,1,1,0,0.211526062036,1,0,0.291968275664,1,0
36,0.546833539934,0.746188615336,0.48278149169,0.517460460895,0,0,0,1,0.244193410505,0,0,0.428627790248,1,0
37,0.533436197666,0.7463830648499999,0.450133418573,0.5230132386990001,1,1,1,0,0.252980571048,0,0,0.272062987429,0,0
38,0.5324446885890001,0.700659273424,0.482381084171,0.518841133244,1,1,1,1,0.688267103117,1,0,0.384938607602,1,0
39,0.532293309226,0.720993142973,0.478061091728,0.550435831806,1,0,1,1,0.326527987907,0,0,0.268335915247,1,0
40,0.509955901378,0.7325455877860001,0.486451554266,0.529734177046,0,1,1,1,0.895199753199,0,0,0.458563602621,0,0
41,0.522443404274,0.729277242203,0.481896903175,0.546559490335,1,1,1,1,0.448197107693,1,0,0.334080538809,0,0
42,0.559879464171,0.731646934454,0.452061986021,0.55133516605,1,1,0,0,0.395657373789,1,1,0.508148121763,1,0
43,0.554928924047,0.7419086891429999,0.450963962249,0.608382106009,1,1,0,1,0.207147876652,0,0,0.516915963231,1,0
44,0.558339499906,0.726220380406,0.447323170148,0.569824860545,0,0,1,0,0.271887606451,0,0,0.31503736429900003,0,0
45,0.542327918454,0.682274802277,0.438921097896,0.5951866860239999,0,0,0,1,0.219318290213,0,1,0.395699634265,1,0
46,0.559365644462,0.620412591652,0.452202631142,0.606955700919,1,1,1,0,0.214657563358,0,1,0.30576752874,0,0
47,0.582889746606,0.596296874084,0.43819633154,0.63297459743,1,1,1,1,0.249945966962,1,0,0.234464746914,1,0
48,0.5721056283479999,0.588386956763,0.463958373999,0.61744247704,0,1,1,0,0.21866053608,1,0,0.253702319617,0,0
49,0.565098084373,0.550466803525,0.434557191667,0.636642688623,1,0,0,1,0.158030033917,1,0,0.43841229804,0,0
50,0.552269996359,0.545855036946,0.414150599477,0.6160763094439999,1,1,1,0,0.26534447722,0,1,0.316471805621,0,0
51,0.579296999009,0.5046836926280001,0.38913408347,0.600752690891,0,1,1,1,0.247351173694,0,0,0.335824990914,0,0
52,0.545723857653,0.532591060026,0.38847637324,0.582261523065,1,1,1,1,0.213396389989,1,1,0.261841385564,1,0
53,0.547803776044,0.4429511672730001,0.3844596416800001,0.610042936315,0,0,0,1,0.259403559781,0,0,0.5558834431899999,1,0
54,0.534553833383,0.480796142128,0.386815060656,0.625917440555,1,1,1,0,0.217505919485,0,0,0.217954182398,1,0
55,0.513895494381,0.494733087753,0.378761655592,0.645621031852,1,0,1,1,0.207461207901,0,0,0.253254660425,0,0
56,0.511393314255,0.483478034005,0.356177164335,0.623784862956,1,1,0,1,0.272139358148,0,1,0.285945554017,0,0
57,0.514391988608,0.4735442322290001,0.33964849141900005,0.632899411106,1,0,1,0,0.227530104552,1,0,0.302601917177,0,0
58,0.515989560823,0.442139993778,0.35241138163900004,0.60058909632,1,1,1,0,0.24150564418900006,0,1,0.329983083735,0,0
59,0.525764563314,0.428915678689,0.359056064985,0.588737223847,0,1,0,0,0.218217404796,0,0,0.474663636792,1,0
60,0.484453314177,0.382693605927,0.322273012906,0.575607667832,1,1,1,0,0.389582732128,0,0,0.2729178565,1,0
61,0.501852177677,0.378790116006,0.348266385337,0.627097289852,1,0,1,1,0.23568577283000006,0,0,0.209468882404,1,0
62,0.465690658224,0.406682094395,0.365285800592,0.605577976942,0,1,1,1,0.238961563492,0,0,0.252793115647,1,0
63,0.4614900844100001,0.386150564986,0.384745511347,0.59557292463,1,1,0,0,0.234340078508,1,1,0.432097073522,1,0
64,0.477654803341,0.340439664541,0.439381794442,0.599005330602,1,1,1,1,0.251057417498,1,1,0.25415933648600003,1,0
65,0.485264732986,0.356234676451,0.477104926698,0.5754126128270001,0,0,1,1,0.227737180888,1,1,0.17752992343600002,0,0
66,0.480929622332,0.342089943529,0.468682781307,0.574176542677,0,1,1,1,0.207027736154,0,1,0.2128071582,1,0
67,0.469137433571,0.305190500811,0.445846323126,0.556940059502,0,1,1,1,0.226325982828,0,1,0.288089367627,0,0
68,0.489541608107,0.283704350515,0.426743131394,0.577404985961,0,1,1,1,0.187005024167,0,0,0.294102429736,1,0
69,0.500959573204,0.277738032913,0.439937772731,0.569444362347,1,0,1,1,0.246321225506,0,0,0.254830070623,0,0
70,0.464624710978,0.257639943573,0.463051680973,0.5935574037370001,0,0,1,1,0.524376446667,1,0,0.292897100569,0,0
71,0.469272313663,0.291743884793,0.4311283957230001,0.619243458659,1,1,0,1,0.247830528244,0,0,0.448265931898,0,0
72,0.442569430847,0.305571307779,0.423277944192,0.691023532333,1,1,0,1,0.19787019272,0,1,0.371662176994,0,0
73,0.428118305468,0.322130108694,0.394729325433,0.6962299195199999,0,1,1,0,0.251902023311,1,1,0.335038946048,0,0
74,0.438677992833,0.337694729763,0.4108622265470001,0.650399646429,0,1,1,1,0.271230154178,0,0,0.266494867767,0,0
75,0.416903564379,0.354666960234,0.408114385276,0.691752323331,0,0,1,1,0.205291132424,1,0,0.277797734114,0,0
76,0.410252831937,0.354351537923,0.34990200924000003,0.699816488689,0,1,1,0,0.547366447838,1,1,0.673196715274,1,0
77,0.382105136942,0.31723457658000004,0.398994637826,0.679198993792,0,0,1,1,0.265686485221,1,1,0.212722335386,0,0
78,0.350493082677,0.356103280391,0.400864901613,0.670987749523,0,0,1,0,0.018264072437,0,0,0.362669751279,0,0
79,0.324495496683,0.354691730877,0.36840960272,0.688440743763,0,1,1,1,0.328167694401,0,1,0.326063122663,0,0
80,0.32565886987500003,0.346432091963,0.408804202498,0.739777384453,1,0,1,0,0.296868981655,1,1,0.412056551762,1,0
81,0.320943885874,0.350167289241,0.422944995249,0.74467193107,0,0,0,1,0.329507351512,0,1,0.610198418975,0,0
82,0.311495769014,0.332742969843,0.469572988383,0.7358358198999999,0,0,0,1,0.223849820755,0,0,0.386967110482,0,0
83,0.326466431319,0.368797461159,0.453252901721,0.694645835131,1,1,1,1,0.203243008608,1,1,0.313036028867,0,0
84,0.343856188049,0.37773107112,0.495176173493,0.70469829855,0,0,1,0,0.281214795513,0,1,0.361740926374,1,0
85,0.295134328768,0.374226439959,0.47922250891,0.7383026923649999,0,1,1,1,0.230018039186,0,1,0.265078236217,1,0
86,0.266465544346,0.3979449044290001,0.4795662236300001,0.6925191664679999,0,1,0,1,0.225271885795,1,0,0.380441187302,0,0
87,0.267881137026,0.405445915025,0.488710172092,0.691600085199,0,1,1,1,0.186044503904,0,1,0.27975379046300003,0,0
88,0.258066883481,0.38086684808,0.525646541551,0.724031308532,1,0,0,0,0.258668227487,0,0,0.323109115343,0,0
89,0.271923752802,0.370595528085,0.501069393387,0.7238512926039999,1,0,0,0,0.368702132464,0,1,0.481174768805,0,0
90,0.259859942238,0.356708053014,0.496515509349,0.738840662239,0,0,0,1,0.238878551842,0,0,0.511282943551,0,0
91,0.2726453848,0.392041508742,0.505533794137,0.74462958879,0,1,1,0,0.218264495042,1,0,0.338685421464,1,0
92,0.25480344808600003,0.40863959026,0.470431365642,0.7324655604320001,0,1,1,0,0.218923758478,1,0,0.20338216632,1,0
93,0.308879805376,0.437659447503,0.51119037198,0.749093790965,1,0,1,0,0.243588481968,1,0,0.244065421633,1,0
94,0.306606045351,0.4133212089010001,0.54326983298,0.73360410466,1,0,1,0,0.233600218306,1,0,0.284702794142,0,0
95,0.343211124403,0.438809703569,0.5358304735189999,0.7317655630650001,1,0,1,0,0.186285690482,1,1,0.333441198169,1,0
96,0.378377156954,0.447131704663,0.52628333027,0.748131244838,1,0,1,0,0.282982490881,1,1,0.272733721566,0,0
97,0.364004534485,0.4233030772550001,0.5158106012929999,0.739352021851,0,1,0,0,0.198293703068,0,1,0.388059543804,1,0
98,0.392591052617,0.402337990733,0.522466224769,0.7372971465170001,0,0,1,0,0.199021790709,0,1,0.236760094519,1,0
99,0.407765727034,0.463083535821,0.527211829745,0.711166285669,0,1,1,1,0.239641051586,0,1,0.2480925432,0,0
100,0.390421978924,0.488970227704,0.552656477835,0.7175847089149999,1,1,1,0,0.186972121367,0,0,0.3740589497420001,0,0
101,0.433306113019,0.471173230355,0.564438795214,0.712942479777,0,0,1,1,0.08897732061310001,1,1,0.297374899933,1,0
102,0.428810205842,0.478717830345,0.573642376237,0.681710554726,1,0,1,0,0.206951969157,1,1,0.271397384922,0,0
103,0.45739651985,0.446708321919,0.615633997687,0.6728117030670001,1,0,1,0,0.271551333801,1,0,0.338742774968,1,0
104,0.476152625343,0.451718132492,0.642465443777,0.637848661414,0,1,1,0,0.424258962541,1,0,0.339492596568,0,0
105,0.481983486127,0.438489931396,0.628789554521,0.651638321688,1,0,1,1,0.225078393184,0,1,0.214885468071,0,0
106,0.456534139664,0.431462710937,0.608198531723,0.639600163118,1,1,1,0,0.252382887163,0,0,0.236844917333,1,0
107,0.500491648835,0.478410448583,0.605576319194,0.6273790860490001,0,1,1,1,0.239705347883,0,0,0.365501203216,1,0
108,0.484394270193,0.511953660836,0.6530882968689999,0.613616789635,1,1,1,0,0.216417712211,0,1,0.251567259963,0,0
109,0.492812521905,0.475399269397,0.6489281785409999,0.6162277890860001,0,0,0,0,0.169067866703,1,1,0.473502077404,0,0
110,0.523361021494,0.488549812303,0.604490312294,0.587667772373,1,1,0,0,0.129788866658,1,0,0.402192654647,1,0
111,0.526039930659,0.44883158734,0.62385003,0.573095463801,1,0,1,0,0.215833612051,1,0,0.248264301851,0,0
112,0.543179613645,0.452830037806,0.570463737124,0.5700478377139999,1,1,1,0,0.203137055556,0,0,0.219595096336,0,0
113,0.540931884263,0.466131324332,0.588953877772,0.561592069663,1,1,1,1,0.235770595643,1,1,0.193614562719,1,0
114,0.530598487304,0.474469236178,0.594803095645,0.549944207544,0,1,1,0,0.225721356151,1,1,0.284833499759,1,0
115,0.546791137998,0.51251858118,0.568595906331,0.509715671142,0,1,1,0,0.223761073754,1,1,0.266855289261,0,0
116,0.529905885853,0.531688529283,0.587970791227,0.527799563031,1,0,1,0,0.21905959572500006,1,0,0.214247938594,1,0
117,0.514799035406,0.505105965791,0.564062607576,0.525556292025,1,1,1,1,0.214420300967,1,0,0.21485165969,0,0
118,0.52564734533,0.512159001481,0.539855013558,0.530171966664,0,1,1,1,0.108418347326,0,1,0.231430142828,0,0
119,0.527840457741,0.497881956881,0.567973280541,0.548968422318,1,1,1,0,0.207618477246,0,0,0.19746811447,1,0
120,0.530510447679,0.498039966243,0.549681929935,0.553380459919,1,1,1,0,0.234916934014,0,0,0.192698415957,1,0
121,0.5618608678589999,0.5249460856970001,0.573093452609,0.544943431361,1,1,0,0,0.184867549629,1,1,0.37198486592,0,0
122,0.543064259693,0.530399659635,0.621489441693,0.518969065647,0,0,0,0,0.268217585912,1,0,0.322103617859,1,0
123,0.555630825123,0.54137999895,0.6316360950500001,0.496902423552,1,0,1,0,0.199641812274,1,0,0.301390550799,1,0
124,0.57380682916,0.567015979852,0.639131037553,0.452007839686,0,0,1,1,0.34160048877300003,1,0,0.288786665491,1,0
125,0.605867671744,0.589053905621,0.658538286869,0.466260140411,1,1,1,1,0.211661899282,1,0,0.252108797786,1,0
126,0.588797151035,0.5695683975720001,0.6794964578820001,0.467737906236,0,0,1,1,0.196344589512,1,0,0.23677730057,1,0
127,0.607133540896,0.5585501959529999,0.6990682813719999,0.459982846591,1,1,1,1,0.258304787388,1,0,0.226771528996,0,0
128,0.612780927333,0.581097874438,0.671765059223,0.448823210629,1,1,1,0,0.213706702632,0,1,0.222153968198,1,0
129,0.599125051757,0.553925228225,0.66290184601,0.459227210907,0,0,1,0,0.198336869126,0,1,0.212082692886,0,0
130,0.6615992099570001,0.56044361482,0.6779139554870001,0.4623476302310001,0,0,1,1,0.23360897226100005,1,0,0.287431915353,0,0
131,0.668788149985,0.547765880728,0.6991842754369999,0.457916387086,0,1,1,0,0.0902635484072,1,-1,-1.0,0,1
132,0.67730498714,0.522448219083,0.6779678995199999,0.495029225168,0,0,1,0,0.0569426718521,0,0,0.195921079163,0,0
133,0.697730280748,0.5203869958640001,0.747473265995,0.523823288984,0,1,1,1,0.0948361319834,0,1,0.303192960129,0,0
134,0.6777194251049999,0.499980436075,0.7240261764329999,0.494350318083,0,1,0,0,0.215404970074,0,0,0.287870518729,1,0
135,0.636875670779,0.507062742452,0.708947551314,0.4782597052800001,1,1,1,0,0.165401770351,0,0,0.237897505061,1,0
136,0.630262328923,0.511847018012,0.694762045919,0.502981069858,1,1,1,0,0.0727185077949,0,0,0.22243620781,0,0
137,0.67126002124,0.517525496338,0.715496850376,0.5332816151349999,0,0,0,0,0.281283921579,1,1,0.367111629238,0,0
138,0.674185834084,0.466275284359,0.7039633485439999,0.570065678546,0,1,1,1,0.34592041507,0,1,0.237178775098,0,0
139,0.63132387301,0.477967848128,0.688842221217,0.543639708016,0,1,0,1,0.336009125848,1,0,0.304576688879,0,0
140,0.637276559402,0.487279517728,0.739097873878,0.532636078048,1,1,1,1,0.363429534278,1,1,0.233335486605,1,0
141,0.661294391924,0.518035372771,0.726489651487,0.500541693435,1,0,1,0,0.196153209925,1,1,0.217929731694,0,0
142,0.6412291275850001,0.498547060985,0.738844104708,0.521211295356,1,1,1,0,0.186113026249,0,1,0.197224814869,0,0
143,0.633335221798,0.488057523027,0.749292370628,0.515838548871,1,1,1,0,0.0507324948048,0,0,0.237761064095,1,0
144,0.6133367394820001,0.478858656453,0.695464170692,0.570569762286,1,1,1,0,0.0193374885439,0,0,0.187711075988,1,0
145,0.644423880966,0.472637770651,0.712034170787,0.533081948701,0,1,1,0,0.187849328119,1,0,0.929653512389,1,0
146,0.661866679233,0.444441033815,0.7060645368459999,0.515174722066,0,0,0,1,0.199472468507,0,0,0.47192908209,0,0
147,0.627158515522,0.460574999086,0.695894908156,0.553647959243,1,1,0,1,0.336212579857,0,1,0.408769894119,1,0
148,0.641913936407,0.488359057404,0.6872116612870001,0.563386741407,1,0,1,1,0.128923432468,0,1,0.196117288519,0,0
149,0.629689886541,0.532745332316,0.6845632535070001,0.567657506434,0,0,1,1,0.182916021188,1,0,0.242009449443,1,0
150,0.5880905976899999,0.5306285515,0.7230419039659999,0.598711216547,0,1,1,0,0.327517788642,1,0,0.485429191363,1,0
151,0.606065042007,0.492840014083,0.736884813201,0.612111690143,1,1,1,1,0.211052442837,1,0,0.251454364118,1,0
152,0.59026575705,0.5005159017,0.749601138224,0.596707527813,0,0,0,1,0.206450880648,0,1,0.8762091024240001,1,0
153,0.535219911987,0.49871566753,0.7184642809,0.630063170387,1,0,1,1,0.239314740334,0,1,0.239782926044,0,0
154,0.524649959214,0.520705263854,0.745071918923,0.671465960097,0,0,1,1,0.17866099490899998,1,0,0.227128328163,1,0
155,0.542784534406,0.556341048108,0.73792169014,0.6676701304739999,0,0,0,1,0.189973218932,0,1,0.361063853165,1,0
156,0.591818220254,0.57842266475,0.713568214952,0.669535769885,0,0,1,0,0.50259056722,0,1,0.241841916839,0,0
157,0.5931390799149999,0.568350422662,0.709305942129,0.6672551165789999,0,0,0,1,0.140725274301,0,1,0.231828598751,1,0
158,0.615304007944,0.551673256992,0.680962494327,0.646251164282,0,1,0,0,0.178678200959,0,1,0.325803824452,1,0
159,0.6634577913549999,0.546734766646,0.6863685606569999,0.6184787039999999,0,1,0,0,0.403322518676,0,1,0.321197734356,1,0
160,0.675252967641,0.561014337099,0.656546084221,0.6161364317570001,1,0,1,0,0.25212660755800004,1,0,0.300599072442,1,0
161,0.636745995211,0.572770206641,0.676623448901,0.6430898118680001,0,0,1,1,0.212808667504,1,0,0.26127509517700004,1,0
162,0.609673219517,0.585696211945,0.703722285675,0.62625404529,1,0,1,0,0.218801806816,1,0,0.4699615550399999,1,0
163,0.65409367247,0.574233699075,0.661596658302,0.55810434125,0,1,0,0,0.198198918856,0,1,0.222638152517,1,0
164,0.6740183109550001,0.566190102546,0.68458184973,0.567257659352,1,0,1,0,0.185603183783,1,0,0.25261260304,1,0
165,0.6289497050289999,0.567705614247,0.701758238328,0.584076767924,1,0,1,0,0.162145298764,1,0,0.223967546369,1,0
166,0.648461744781,0.548490924838,0.748870633509,0.5708701541910001,1,0,1,0,0.21881478682,1,0,0.315229347607,0,0
167,0.630533500377,0.588305872512,0.739603087078,0.617812684858,0,1,1,1,0.163448732608,0,1,0.209278710258,0,0
168,0.6445546403419999,0.549810405584,0.7222307050929999,0.589711564265,0,0,0,1,0.198720835743,0,0,0.436536838457,0,0
169,0.699195830931,0.5001270730699999,0.6808389837700001,0.59198738397,1,0,0,1,0.312119278384,1,0,0.339260767667,1,0
170,0.6841950851340001,0.459474126984,0.671787416805,0.597227264889,1,1,1,1,0.20083567074,1,0,0.246684363745,1,0
171,0.708765487526,0.5028643569560001,0.6102512352589999,0.576840876875,0,1,0,0,0.041495562046300005,0,1,0.249877444618,1,0
172,0.743920282493,0.535696689558,0.573958197383,0.613971412238,1,1,0,1,0.303362605757,0,1,0.20256080377,0,0
173,0.749377396361,0.55453274017,0.550191387714,0.604590930646,0,0,1,1,0.349366455082,1,0,0.24857219961,1,0
174,0.7258923458390001,0.562323987025,0.5698535765470001,0.586956704296,1,1,0,1,0.190134110604,0,0,0.353226345906,0,0
175,0.7179228811589999,0.543679135342,0.592465292376,0.638211135641,1,0,1,0,0.177444496901,1,0,0.233891815595,1,0
176,0.696717230447,0.563657405923,0.5760014421140001,0.596257815396,1,1,1,1,0.194092106105,1,0,0.301185889348,1,0
177,0.689474379615,0.5507200257020001,0.534630085515,0.56106464759,0,0,1,1,0.181355100296,1,0,0.277840296451,1,0
178,0.69567050012,0.530479795908,0.554203371831,0.582540431871,1,0,1,0,0.203403900279,1,0,0.21183124305,0,0
179,0.6608321289810001,0.530376421453,0.509379018488,0.564751807323,0,0,1,0,0.297368560861,0,1,0.27386871722600004,1,0
180,0.644334102828,0.565421233838,0.502280537051,0.5429451503,0,1,1,1,0.17013615118099998,0,1,0.258495563254,1,0
181,0.666307869365,0.556718617529,0.51742385295,0.56734816565,0,0,0,0,0.226731381544,1,0,0.28583688422,0,0
182,0.6534225506100001,0.535574398504,0.5217411857509999,0.56529605713,1,1,1,0,0.198064289052,0,1,0.299832950373,1,0
183,0.640582986549,0.518916765222,0.496206304369,0.617773856479,0,1,1,1,0.196056312689,0,1,0.257862863546,1,0
184,0.622575240568,0.528873570623,0.499053194338,0.647887645522,1,1,0,0,0.199407266628,1,1,0.333162279023,1,0
185,0.618991872052,0.538639389867,0.472237309867,0.6337195445939999,1,0,0,0,0.242759572903,0,1,0.232506577541,0,0
186,0.613149621613,0.536581326555,0.469530196174,0.620043945777,0,0,1,1,0.192685435953,1,1,0.235793235185,1,0
187,0.581959461636,0.5061948045579999,0.447731373358,0.623894573264,0,1,1,0,0.28667515096,1,1,0.268481412031,0,0
188,0.6034130773340001,0.526664054067,0.433390369559,0.61558039784,0,0,1,0,0.212783009356,0,0,0.301155401433,0,0
189,0.601874200796,0.505914059246,0.448294389247,0.609844521374,1,1,0,0,0.00269259608558,1,0,0.459093066022,0,0
190,0.642813309231,0.500576793305,0.450007290232,0.593862402391,0,0,1,0,0.296600627628,0,1,0.337163742442,1,0
191,0.6420262191080001,0.499596081861,0.451720529965,0.62290413148,0,0,1,0,0.198700611086,0,1,0.231186843227,1,0
192,0.645235098754,0.497711066197,0.453155913585,0.63302559179,1,0,1,1,0.274030514479,0,1,0.295842052072,1,0
193,0.678352409429,0.496579767131,0.498303240513,0.6115894577300001,1,0,1,1,0.109374037819,0,1,0.331136191026,1,0
194,0.685113487002,0.5141727341260001,0.473254934569,0.6457418311159999,0,1,0,1,0.20071402094,1,0,0.366482853717,0,0
195,0.666261642153,0.468690547331,0.458785617278,0.6178318835409999,1,0,1,1,0.281334634151,0,1,0.305922383201,1,0
196,0.660629103762,0.454183370329,0.427578425689,0.631252175323,0,1,1,1,0.210081357454,0,1,0.282545094947,0,0
197,0.654622856073,0.455185359155,0.437238671657,0.631127641194,1,0,1,1,0.173424016266,0,0,0.277859615526,1,0
198,0.672342425981,0.447355167227,0.402730285219,0.5859377094389999,0,0,1,0,0.195465571597,0,0,0.209174266509,1,0
199,0.676286650095,0.421845116575,0.431508383683,0.58074265221,1,1,1,0,0.246774016327,0,0,0.279224930783,0,0
200,0.66190160703,0.444456796542,0.446830721836,0.539798903854,0,1,1,0,0.210039398838,1,1,0.357171059542,0,0
201,0.654984348367,0.414237025946,0.418252053154,0.520976768665,0,1,0,0,0.016095506262,0,1,0.296521238304,0,0
202,0.629452495621,0.415788252844,0.418589893831,0.514428974485,1,0,0,0,0.288607964047,0,0,0.254482025412,1,0
203,0.60808889538,0.413006599294,0.45540280799,0.512715390687,1,0,1,1,0.198709365043,0,0,0.239135133307,1,0
204,0.579604970444,0.427326308931,0.450162269526,0.546411050677,1,0,1,1,0.220678171981,0,0,0.253175271101,0,0
205,0.600167407134,0.462042092348,0.465114368226,0.591371771132,0,0,0,0,0.178652240952,1,0,0.357793194132,0,0
206,0.594961293376,0.5326408148080001,0.448037250035,0.5608325451039999,1,1,1,0,0.20867891335,0,1,0.22243560409,1,0
207,0.588098858331,0.522609085759,0.425987919283,0.569644912637,1,1,1,0,0.246707305146,0,1,0.271171895093,1,0
208,0.594053006443,0.538984933184,0.414841256898,0.561028370792,0,0,1,0,0.231317548843,0,1,0.165101720967,1,0
209,0.5471569002059999,0.546386659712,0.413819788278,0.564472581728,1,0,1,1,0.183951402866,0,1,0.195056852415,1,0
210,0.548206087681,0.5552092692580001,0.408816868168,0.55911134291,0,0,0,0,0.211235068467,1,0,0.7396422590270001,0,0
211,0.51946699766,0.553928473735,0.4549613458899999,0.566025873393,0,0,1,0,0.5133869115690001,0,1,0.300630164079,0,0
212,0.5590292021450001,0.547694040101,0.490533943946,0.5456834299059999,1,0,1,0,0.188857844209,1,1,0.27196639205400003,1,0
213,0.51096616003,0.578443260007,0.45593490362,0.5289203062560001,0,0,1,1,0.248108843669,1,1,0.4619447426160001,1,0
214,0.510361563911,0.6073331663570001,0.439867029418,0.496869305229,0,0,0,1,0.179564463528,0,0,0.356068362962,1,0
215,0.446564097196,0.6362927484790001,0.401478755404,0.476339495428,0,0,0,0,0.0149264003612,1,1,0.20995729277,0,0
216,0.463672726389,0.648921503144,0.392270274033,0.471542719893,1,0,1,1,0.191494294231,0,0,0.461247746611,1,0
217,0.443915145863,0.663277116229,0.394985257936,0.470047519249,0,1,1,1,0.266872797172,0,0,0.254005387607,1,0
218,0.4820702256580001,0.698764419751,0.42147543827,0.489311163886,1,1,1,0,0.206215731281,0,0,0.206693274667,0,0
219,0.480539083031,0.716333031491,0.444691762201,0.467890528316,0,1,1,1,0.198903159514,0,1,0.0206451484364,0,0
220,0.488122261738,0.744695755853,0.433098486863,0.494663592291,1,1,1,0,0.199416020584,0,0,0.221186505143,0,0
221,0.489609587667,0.735154015967,0.407615786081,0.48401917656,1,0,1,0,0.0694007585153,1,1,0.123119559718,1,0
222,0.488888233388,0.748912561798,0.365484106513,0.509776938669,0,1,1,0,0.219246447403,1,1,0.0837629815123,1,0
223,0.458959199677,0.745954308125,0.351120879394,0.504990543544,0,1,1,0,0.203882952968,1,1,0.113634497589,1,0
224,0.471309575937,0.734696369771,0.37244495001,0.52307286684,0,0,1,1,0.121750923995,1,1,0.0235387836465,0,0
225,0.462460416603,0.7451165689460001,0.354891763313,0.516579993047,0,1,1,1,0.183707197684,0,1,0.101443859372,1,0
226,0.46196007029,0.7069000370049999,0.365014078424,0.516946548574,0,1,1,1,0.210907549774,0,1,0.422013120066,1,0
227,0.491021121463,0.742646232747,0.40271953144,0.512350607777,0,1,1,1,0.144966414995,0,1,0.166725730714,1,0
228,0.467589057625,0.7479226206049999,0.35992946022100003,0.491205544573,1,0,1,1,0.313494253179,0,1,0.17263042488699998,0,0
229,0.476227437199,0.748003736038,0.318992101844,0.481222651769,1,0,1,1,0.0822950336697,0,0,0.18664792313900005,0,0
230,0.476460106776,0.733724945996,0.304432529743,0.498331609813,0,0,1,1,0.210820312076,1,1,0.165922177935,0,0
231,0.474783388996,0.735552822477,0.3228652803300001,0.494801630778,1,1,1,1,0.05938864787000001,1,0,0.102495843381,0,0
232,0.477314231246,0.719822522192,0.370699942181,0.466354850108,0,0,0,0,0.038596795207,1,0,0.215020701597,1,0
233,0.462492731052,0.671981415064,0.378095979941,0.442480130507,1,1,1,1,0.340492056842,1,0,0.205062020268,0,0
234,0.432856247525,0.6876504512039999,0.399460807015,0.393967297772,0,0,1,0,0.114522873181,0,1,0.125634661801,1,0
235,0.445397971216,0.664681260022,0.40697874243,0.400667389911,0,0,1,0,0.144394691119,0,1,0.174223342997,1,0
236,0.408079285448,0.667117571827,0.362291172565,0.372514973802,1,1,0,0,0.203687045474,1,0,0.641467851247,1,0
237,0.391833722556,0.6773298934980001,0.371405627974,0.381598621457,1,1,1,1,0.103205819388,1,0,0.202261056246,0,0
238,0.394785163092,0.683329678409,0.371371016601,0.371680784851,1,1,1,0,0.0531787726832,0,1,0.173555929326,1,0
239,0.367333051409,0.710630281542,0.41638412265,0.3840305444080001,0,0,1,0,0.0483610783422,0,1,0.126083226575,1,0
240,0.374094843534,0.699997537709,0.397596539257,0.378814247472,1,1,1,0,0.14489155358,0,1,0.118697604555,1,0
241,0.385902995605,0.709542442774,0.372893880609,0.34678741899899995,0,1,1,1,0.220162896026,0,1,0.172584843944,1,0
242,0.438202492307,0.699226485527,0.357527876562,0.362244182794,1,1,1,0,0.0901491432587,0,1,0.0985100767084,1,0
243,0.445417802524,0.734919323559,0.357518111213,0.309548380244,1,0,1,1,0.122656203777,0,1,0.328386543299,1,0
244,0.473870295873,0.729120328202,0.328626681243,0.262602570346,0,1,1,1,0.17127839149399998,0,1,0.203709383154,0,0
245,0.462214746531,0.739016508054,0.319214320572,0.264763181069,1,1,1,0,0.353148465884,0,0,0.215044548579,0,0
246,0.466448440837,0.722410578595,0.351828775532,0.263555614675,1,0,1,0,0.300588205463,1,0,0.207800499156,0,0
247,0.439723531895,0.691339516366,0.328095254077,0.274105491598,0,1,1,0,0.162592052374,1,1,0.216392657786,1,0
248,0.432306902563,0.7243491992829999,0.337504460887,0.343317516198,1,1,1,1,0.349854865449,1,1,0.0170318776809,1,0
249,0.430890891452,0.725536429202,0.314233159319,0.333828564443,0,0,1,1,0.382317250606,1,1,0.06033648998980001,1,0
250,0.441231488786,0.7441352468160001,0.290550055628,0.347648290721,0,1,1,0,0.0524748338858,1,1,0.191588474723,1,0
251,0.395212313897,0.7180551631300001,0.28052460665,0.360919392525,1,0,1,0,0.151723563355,1,1,0.050835127391099987,0,0
