trial,rwrd_prob0,rwrd_prob1,rwrd_prob2,rwrd_prob3,symbol0,symbol1,common,choice1,rt1,final_state,choice2,rt2,reward,slow
1,0.688618552873,0.738257124428,0.557595791899,0.585759938962,0,1,1,1,0.258621116423,0,0,0.8589988637999999,1,0
2,0.6641851791350001,0.712991167426,0.5850265089159999,0.614142692699,0,1,0,1,0.25666174433899996,1,0,0.7771924380490001,1,0
3,0.6611414036819999,0.746390756855,0.589618000374,0.574545410766,1,1,1,0,0.217444720412,0,0,0.6259805916210001,1,0
4,0.658219205282,0.741402533707,0.584503214193,0.604029988576,1,0,1,1,0.226194730977,0,0,0.51730018993,1,0
5,0.661049945545,0.703000276235,0.577840588032,0.565805893473,0,1,1,1,0.28827823989100004,0,0,0.49406453038500003,1,0
6,0.660837599351,0.7026684033,0.5792826132159999,0.569665490647,0,0,1,0,0.243576121198,0,0,0.34808331089500005,0,0
7,0.663692288001,0.6737640883939999,0.635213046139,0.550819547679,0,1,1,1,0.260220671602,0,0,0.388716661093,1,0
8,0.68168849364,0.675400501236,0.6060867483460001,0.543427250603,1,0,0,1,0.215525797544,1,0,0.27195064229800003,1,0
9,0.6984850542829999,0.6602631254510001,0.6451619139370001,0.559896923734,0,1,1,1,0.237433877607,0,0,0.30196909197,1,0
10,0.70180575941,0.691905769153,0.654878484437,0.6039984427489999,1,0,0,1,0.21938054742899998,1,0,0.23049321479499998,0,0
11,0.684914474517,0.6572101953980001,0.677229765047,0.615095190332,1,0,1,1,0.24666595830200003,0,0,0.22841641924199999,1,0
12,0.653815773829,0.688030865504,0.6809137806100001,0.614857295014,1,0,1,1,0.26057988478599997,0,0,0.44497729410400005,0,0
13,0.649271401756,0.6988256202709999,0.6843749878059999,0.631924291775,1,1,1,0,0.23185279141800003,0,0,0.23766510222800002,1,0
14,0.642573820243,0.723988587723,0.665617134091,0.595016840985,0,0,1,0,0.22442070082199997,0,0,0.20358935473200002,0,0
15,0.6490555361429999,0.707233598311,0.6409942419879999,0.585831806347,1,1,0,1,0.246336327381,0,1,0.350752959132,0,0
16,0.643803504351,0.722958942209,0.631747347811,0.631613644682,1,1,0,1,0.22289962919599998,0,0,0.22872220323800002,0,0
17,0.605844496219,0.736642503652,0.633629324084,0.61984762109,1,1,0,1,0.292858057061,0,0,0.7493069298559999,1,0
18,0.611145144045,0.725999508544,0.635447814949,0.636140065135,1,1,1,1,0.264320531659,1,0,0.21406117370299999,1,0
19,0.5786650811949999,0.742160468189,0.646806345033,0.647814254371,0,0,1,1,0.21958430280699998,1,0,0.214648894771,1,0
20,0.586910801382,0.736457482324,0.66898005582,0.696092660006,1,0,0,0,0.214822766026,0,0,0.471232457417,1,0
21,0.595595528106,0.7122434021100001,0.684577104631,0.669626865511,1,0,1,0,0.234122777255,1,0,0.24518141171399999,1,0
22,0.592994971079,0.731355460267,0.681812274984,0.704165507958,1,0,1,0,0.272010712401,1,0,0.411108018725,1,0
23,0.5913924534749999,0.723482917643,0.664619187783,0.729519341412,0,0,1,1,0.21932409964299998,1,0,0.227756855538,1,0
24,0.626723077273,0.742844148725,0.696312162242,0.72602046264,0,0,1,1,0.222566979675,1,0,0.35368160309299995,1,0
25,0.589744363645,0.728851345183,0.6774659352069999,0.727383554312,1,0,1,0,0.24452214987,1,0,0.314330553405,1,0
26,0.548293161927,0.748794519938,0.67234230964,0.738568689776,1,0,0,0,0.226459462037,0,0,0.23221170274300001,1,0
27,0.523285079084,0.740595203356,0.644537576313,0.742212369449,0,1,1,0,0.243045451637,1,0,0.299485691241,1,0
28,0.568608562335,0.696849922379,0.643977713975,0.7176835051680001,1,0,1,0,0.235656526994,1,0,0.249421938447,1,0
29,0.5929106431719999,0.655524858941,0.6433528677220001,0.710735512283,1,0,1,0,0.185561380779,1,0,0.20731521047499998,0,0
30,0.634390681126,0.6732904648029999,0.63287408451,0.7268707402399999,0,0,1,1,0.30611483472,1,0,0.311911750679,0,0
31,0.683844059468,0.679069718018,0.665482682789,0.735103716947,1,0,1,1,0.232044472404,0,0,0.291192696442,1,0
32,0.6830355238320001,0.679372636112,0.6745582024860001,0.720931268217,1,1,1,0,0.267361769334,0,0,0.321155603907,1,0
33,0.6708282189620001,0.6549869519979999,0.713225449099,0.714793190594,0,1,1,1,0.230622410797,0,0,0.236405743064,1,0
34,0.687902087596,0.6450114411300001,0.7088762474060001,0.676313998251,0,0,1,0,0.23391872001800001,0,0,0.333068199793,0,0
35,0.6756525631,0.605594130043,0.7263050704999999,0.6895471132400001,0,0,1,0,0.250517387729,0,0,0.29092826724,1,0
36,0.638482808997,0.615260404649,0.713449377309,0.645784240589,0,0,0,0,0.211104154919,1,0,0.451559347452,0,0
37,0.679437302154,0.617350926119,0.708457021664,0.624491439684,0,1,0,1,0.5317535399100001,1,1,0.215039199516,1,0
38,0.653668637405,0.610567894744,0.741773235701,0.590863718381,0,0,0,0,0.23109542513300002,1,1,0.226222803939,1,0
39,0.6698371703320001,0.616442671561,0.6975825773190001,0.561646170996,1,1,1,0,0.274380311978,0,0,0.357490470285,1,0
40,0.649650601662,0.648682635125,0.726866796951,0.550146057113,1,1,1,0,0.248308981296,0,0,0.5180708380479999,0,0
41,0.6417604062860001,0.656682444027,0.7297632832719999,0.503926263442,0,0,1,1,0.243693846527,1,1,0.377493513032,0,0
42,0.657985201381,0.629838185783,0.729467947528,0.472044037102,1,1,1,1,0.23360599324499998,1,1,0.292753915424,0,0
43,0.63484165141,0.6455063971230001,0.723094092167,0.522203120443,1,0,1,0,0.226198957014,1,0,0.335998654913,1,0
44,0.622512556852,0.678078102128,0.732840684386,0.521229901956,0,1,1,0,0.176226667746,1,0,0.187352315084,1,0
45,0.5726751767530001,0.6880896606929999,0.746982229161,0.5646209318800001,0,0,0,1,0.46205531520800003,0,1,0.715993076543,0,0
46,0.536482503679,0.677392994104,0.741327318108,0.555472634709,0,0,1,1,0.278930245026,1,0,0.212720312389,1,0
47,0.50908519724,0.674680561584,0.7293407356110001,0.577643645606,0,0,1,1,0.218118773387,1,0,0.22661250496500002,1,0
48,0.523586777284,0.65006394599,0.71186247132,0.631463555666,1,0,1,0,0.242737252762,1,0,0.216556648825,1,0
49,0.508927806061,0.67026958624,0.7119953362929999,0.570929755774,0,0,1,1,0.261950026503,1,0,0.278474436699,1,0
50,0.496794023441,0.679035928433,0.6722450835320001,0.53807940287,0,0,0,1,0.20923503892200002,0,0,0.297632875674,1,0
51,0.517308985193,0.664178050712,0.6953135039139999,0.55738671275,0,1,0,0,0.19386735555100001,0,0,0.220895581859,0,0
52,0.482683183979,0.657466904148,0.6719227139210001,0.537287284768,1,1,1,1,0.22910194289000002,1,0,0.258784724444,1,0
53,0.49521068394100004,0.6734452713789999,0.643975438101,0.504377262477,1,0,1,0,0.19493110955200002,1,0,0.20604106017999999,1,0
54,0.507392551327,0.673196595934,0.670726139286,0.5187533959399999,1,1,0,1,0.251534655318,0,1,0.20663964820099998,0,0
55,0.493143301285,0.672559137016,0.660032570473,0.49385183287699996,0,1,1,0,0.260137358292,1,0,0.340525646614,1,0
56,0.478705964829,0.654240827169,0.6448232379550001,0.5193736456629999,0,1,0,0,0.236685265256,0,0,0.202475190142,1,0
57,0.438224135959,0.626052291858,0.6513406329429999,0.516644706963,0,1,0,0,0.23192342661600002,0,0,0.155044862406,0,0
58,0.420939044647,0.581525405279,0.688047550052,0.531714698628,1,1,0,1,0.21912940005999998,0,0,0.166301818766,1,0
59,0.4276824673,0.555851010521,0.667790874045,0.49071172995800005,0,1,1,0,0.201016603497,1,0,0.29481712728500004,1,0
60,0.406804331241,0.568123179917,0.636613977579,0.48417714124899996,0,1,1,0,0.236307034903,1,0,0.420718027914,0,0
61,0.41385972190700004,0.61873532746,0.612240627503,0.41817810792599996,1,0,1,0,0.324898061939,1,0,0.354765883562,1,0
62,0.40081883840099997,0.612020103967,0.583963470982,0.409756191206,1,0,1,0,0.218855009484,1,0,0.299342005967,0,0
63,0.409666029397,0.59861997529,0.571239937812,0.416688083985,1,0,1,1,0.400801618935,0,0,0.35864508409199997,1,0
64,0.439725931911,0.557564305449,0.579857675933,0.373674612984,0,1,1,1,0.212174851697,0,0,0.24456893814199998,0,0
65,0.43213583991000004,0.55735455502,0.588849744563,0.413358558823,1,0,0,1,0.207355961551,1,1,0.21315861284499998,1,0
66,0.443638041945,0.556752218156,0.594773007579,0.44819332999399997,1,0,1,0,0.22132060048399999,1,1,0.40572072653999997,0,0
67,0.43427636814,0.5611981910239999,0.651511151177,0.447128717347,1,1,0,1,0.832588544541,0,1,0.203929248888,1,0
68,0.42227268071900004,0.50951038467,0.640288544195,0.43676165169,1,0,0,1,0.334759520357,1,1,0.4578401447,0,0
69,0.428912464064,0.509743939924,0.613031179365,0.434184154002,1,0,1,1,0.327382066388,0,1,0.26390547440900003,1,0
70,0.38546572331600004,0.528531795307,0.600397859461,0.39276486761999996,0,1,1,1,0.23198711903799998,0,1,0.445842726205,0,0
71,0.381460758605,0.543856226929,0.641820716242,0.379891430022,0,0,1,0,0.224684526303,0,1,0.286495757662,1,0
72,0.342448865043,0.537907946224,0.662751834086,0.388517072271,0,1,1,1,0.241224633211,0,1,0.22305327584399998,1,0
73,0.33951905620899997,0.49905741252499997,0.681032079078,0.411859962983,1,0,1,1,0.21804028983399998,0,1,0.24232853456700001,1,0
74,0.33532375224100003,0.5347658926709999,0.640096586502,0.422292326553,1,1,1,0,0.301096113374,0,1,0.40021661460600005,1,0
75,0.34407959141500005,0.594890504195,0.603702601426,0.44550128572400005,1,0,0,1,0.224471715132,1,1,0.187537958872,0,0
76,0.35180498888899997,0.621300047033,0.548847000363,0.434849069503,0,1,1,1,0.190284883222,0,1,0.161505568106,0,0
77,0.310441178343,0.629087454405,0.5610231070989999,0.42091559778399995,1,1,0,0,1.1801297151999999,1,0,0.244990636309,1,0
78,0.26583173132300003,0.604310854767,0.5597454914810001,0.405847923921,1,1,1,0,0.28774726847,0,1,0.213555860367,1,0
79,0.261567845417,0.651022624114,0.573398423776,0.448833679006,0,1,1,1,0.34700476576300004,0,1,0.18483148373799999,1,0
80,0.256463045577,0.68933137543,0.564871785265,0.458769236568,1,1,0,0,0.21699464742199998,1,0,0.228059620937,1,0
81,0.294257145065,0.719320845863,0.600230279021,0.44770860555799996,1,0,1,1,0.166892860291,0,1,0.103271375599,1,0
82,0.32690330765500003,0.693871872088,0.572687532029,0.45122278863799997,0,1,0,1,0.727344213166,1,0,0.0773192795455,0,0
83,0.310145670822,0.66894861737,0.632694632725,0.428284703769,1,1,0,0,0.22672177821999998,1,0,0.44583940574600006,1,0
84,0.31429349338199997,0.7009530890700001,0.608766974311,0.405276820792,0,1,1,1,0.928685014109,0,1,0.20142169937399998,1,0
85,0.34079056954000003,0.703293804656,0.644855590284,0.415505087288,1,1,1,0,0.21014967417199998,0,1,0.19461023256499999,1,0
86,0.355760188233,0.6848122886839999,0.65547859727,0.386720352534,0,0,0,0,0.22670396849100002,1,0,0.22447352629,1,0
87,0.35079118019199995,0.6884585585140001,0.665218799978,0.37860937159100005,0,0,1,0,0.0432338725354,0,1,0.31297429724,1,0
88,0.359146187041,0.688115739709,0.664367789865,0.355720397254,1,0,1,1,0.201077579181,0,0,0.166947195058,1,0
89,0.308273368385,0.6878899100570001,0.6724288537369999,0.382429189622,1,1,1,0,0.249686669508,0,0,0.14612007500600002,0,0
90,0.320008401379,0.681037315265,0.670587642085,0.395247934345,0,1,1,1,0.234212429621,0,1,0.349304635722,1,0
91,0.314411696962,0.7081744500730001,0.664566257217,0.364844115658,0,0,1,0,0.0854897192585,0,1,0.11520872399,0,0
92,0.349875306704,0.715806953621,0.6920255205,0.35466704122500003,1,0,1,1,0.163344799982,0,1,0.185035540975,1,0
93,0.33736880594400004,0.7369682640999999,0.683712863103,0.32197327984900004,1,0,1,1,0.203789789652,0,1,0.08162923403689999,1,0
94,0.33685475556199995,0.692608078664,0.711558665933,0.331509978483,0,1,1,1,0.196320570298,0,1,0.404596298716,1,0
95,0.388097629743,0.666877233992,0.691371921001,0.349506388079,0,1,1,1,0.27956988598099997,0,1,0.375978478603,1,0
96,0.345741728943,0.700391287682,0.682972859966,0.37314400781400003,1,1,1,0,0.09625102179549999,0,1,0.163289559635,1,0
97,0.40857200147600004,0.719302853456,0.694462776579,0.40276092802599994,1,0,1,1,0.17652490524599998,0,1,0.025228538068900002,1,0
98,0.412934979268,0.6877645461380001,0.7189182787180001,0.44549548709799996,0,1,0,1,0.193240090848,1,0,0.198971503226,0,0
99,0.431147856677,0.663239274274,0.696264422993,0.470222618254,1,1,1,0,0.185784757045,0,1,0.127524604594,0,0
100,0.39700120140100004,0.592305828464,0.734074740333,0.470005134077,0,1,1,1,0.196919460178,0,1,0.213390441187,0,0
101,0.37839844887400004,0.578337204228,0.7002886287819999,0.46250475555299997,1,0,0,0,0.194872548747,0,0,0.16859565152800002,0,0
102,0.40174868609700004,0.578295694807,0.6937400045800001,0.49108592063,1,0,1,0,0.0912987096094,1,1,0.163775855803,0,0
103,0.449673089784,0.538122477214,0.696180583946,0.521084090154,1,1,0,0,0.542536274495,1,0,0.19373604653,0,0
104,0.491811272863,0.585842399214,0.722330369975,0.503992335396,1,0,1,1,0.596520884473,0,1,0.186471789993,0,0
105,0.49600124792800004,0.571255469948,0.723267288862,0.537965853744,1,1,0,1,0.133248772336,0,1,0.200287913895,1,0
106,0.447386502983,0.606553086994,0.72355884694,0.580696695551,1,0,1,0,0.23515242109700002,1,1,0.18492928631799999,0,0
107,0.470273396382,0.536533054588,0.720239693788,0.574401274142,1,1,0,0,0.219705348594,1,0,0.220156629023,0,0
108,0.50036327797,0.5325948127660001,0.697320587889,0.545151309327,0,1,1,1,0.825539514054,0,1,0.183541334873,0,0
109,0.455544191691,0.5068048003760001,0.687411598105,0.547278418478,0,0,0,0,0.05834980481719999,1,0,0.9707096362109999,1,0
110,0.452572475753,0.46441508853600005,0.705885030783,0.580072203285,0,1,1,0,0.224419191523,1,0,0.254226339322,1,0
111,0.508818183267,0.436355178207,0.6616648105399999,0.5407773892319999,0,0,1,1,0.171702090923,1,0,0.18018948344500002,1,0
112,0.483655840542,0.456482779902,0.655159527867,0.5799264834269999,1,0,1,0,0.657571127229,1,0,0.196890481636,1,0
113,0.520464561134,0.412464854173,0.627618522434,0.593795209352,0,0,0,1,0.143594413903,0,0,0.194733693231,0,0
114,0.5015764571069999,0.413282458327,0.612868263762,0.616864777365,0,0,1,1,0.234742797323,1,0,0.20058645325599997,1,0
115,0.492638108223,0.38734988358499994,0.652972438948,0.624097924285,1,0,1,0,0.251378895652,1,0,0.227858280437,1,0
116,0.459811839441,0.365409664872,0.625225330984,0.587216307857,1,1,0,1,0.187987730002,0,1,0.487054137955,1,0
117,0.444156831854,0.307303084929,0.607642908786,0.573791331313,0,0,1,1,0.265897749212,1,0,0.133094521969,1,0
118,0.452255601246,0.347076000553,0.652194729849,0.5600138957140001,0,0,1,1,0.26909957631,1,0,0.328251724525,1,0
119,0.450929583591,0.309425345364,0.634042037644,0.558942921866,1,0,1,0,0.21374965437100002,1,0,0.07817958002849999,0,0
120,0.471720125217,0.288603996845,0.613055405495,0.557851035838,1,1,0,1,0.22497219871,0,1,0.164039983145,1,0
121,0.463427750415,0.27410637730799997,0.560011173389,0.557264017623,1,0,0,1,0.00680633519187,1,0,0.10847906119100001,1,0
122,0.47713549979500003,0.26473356754099997,0.569563099195,0.55808678132,0,0,0,0,0.17522871918400001,1,0,0.103643568756,0,0
123,0.49352054236500004,0.283052159067,0.577148299737,0.564601095004,0,0,1,0,0.04506314303669999,0,1,0.170780512896,1,0
124,0.46969289438600004,0.314628684215,0.543294360139,0.554175855706,1,0,0,1,0.149448985087,1,1,0.06730840051749999,0,0
125,0.464225031033,0.28978402023600003,0.559800800518,0.568152525391,0,1,1,1,0.214050306749,0,1,0.198487621937,0,0
126,0.456091198355,0.289075087763,0.5304353265489999,0.58012825791,1,0,0,1,0.179929582141,1,0,0.17234988209399998,1,0
127,0.45371840804700003,0.29935361942600003,0.49607230222599996,0.598184947245,1,1,0,0,0.0657978939844,1,0,0.508854454062,1,0
128,0.429707481337,0.296033882289,0.475666659275,0.583817288837,1,0,1,0,0.221050435945,1,0,0.28549509236299997,0,0
129,0.42579753169600004,0.260973827287,0.49844310440899997,0.572394641154,1,1,1,0,0.22698771671999998,0,1,0.214098906181,0,0
130,0.44510860122199997,0.292733451118,0.517458054301,0.596079651528,1,0,1,1,0.21151740101100003,0,0,0.126659474353,1,0
131,0.430121797751,0.2885279851,0.498522623445,0.606384791355,1,0,0,1,0.20140056918699997,1,0,0.13789409308599998,0,0
132,0.408196644018,0.296447320398,0.47576550860100003,0.571227569949,0,1,0,1,0.22595626171900002,1,1,0.18103287977899998,1,0
133,0.362788234555,0.293115628917,0.49541683566100003,0.576677170427,1,0,1,1,0.24249033143000004,0,0,0.200273424624,0,0
134,0.3283434066,0.274934235817,0.46216982683200003,0.588165247623,1,1,0,0,0.245707553378,1,1,0.206166935724,0,0
135,0.279335625473,0.26126056101399997,0.41977883689999995,0.5691514320009999,1,1,0,0,0.19295604075800002,1,1,0.190724994838,0,0
136,0.293810918261,0.262697187927,0.43498087206,0.545410797771,1,0,0,1,0.17484113117699998,1,0,0.199241064044,0,0
137,0.285535711281,0.261304307334,0.42562393785400005,0.567904402826,1,0,0,1,0.0978629532274,1,0,1.00508543237,1,0
138,0.28335015316,0.265922293323,0.451397427134,0.537547241852,0,1,0,1,0.264196165414,1,0,0.21925195514499998,1,0
139,0.29332542484499996,0.26310431859,0.463424694762,0.547705760239,0,1,1,0,0.160794688232,1,0,0.217147086631,0,0
140,0.296683310716,0.253790030399,0.448935456496,0.514250868653,1,1,1,1,0.19060485463100002,1,0,0.260403598651,0,0
141,0.254355171516,0.256276277232,0.44105740041100006,0.519792752853,0,1,1,1,0.24985208868900002,0,0,0.204980928496,1,0
142,0.288891322839,0.25409669862,0.450551697931,0.533579503633,0,0,0,0,0.15709056639799998,1,1,0.229566505152,1,0
143,0.294463709216,0.263759207098,0.463641915605,0.555303231647,1,1,1,0,0.213644305293,0,0,0.118055865801,0,0
144,0.268970390408,0.255908822848,0.48946518528599997,0.572681715128,1,1,1,0,0.539491414503,0,1,0.16677030520400002,0,0
145,0.277497586461,0.291825223533,0.45858463253700005,0.5693764024819999,1,1,1,1,0.33752485815600003,1,1,0.19662092081799998,1,0
146,0.29474951872099997,0.266164205668,0.48967205432099997,0.566150598395,0,1,1,0,0.223421242962,1,1,0.186599778556,1,0
147,0.26192800797,0.26862518128,0.49174028068099995,0.6055122167679999,1,0,1,0,0.474638643612,1,1,0.22450371227200003,1,0
148,0.253357677168,0.292548960708,0.501014268055,0.628238012163,1,1,1,1,0.208641280658,1,1,0.222445632028,0,0
149,0.266681450625,0.293016046621,0.48483365238399995,0.603734312289,0,1,0,0,0.393182375251,0,0,0.428352666449,0,0
150,0.28574325390099997,0.293075349756,0.50415842245,0.594754105533,1,1,0,1,0.188558848779,0,1,0.191707850408,1,0
151,0.264698193646,0.319697998088,0.540634173142,0.620224656659,1,0,0,1,0.20250507426300002,1,1,0.17617987947299998,1,0
152,0.259054405005,0.254605229527,0.526691195666,0.5823777367090001,1,1,1,1,0.189675730108,1,1,0.0913560629751,0,0
153,0.2506917642,0.28476882089,0.534436190381,0.567195889035,1,1,1,0,0.19280843130699998,0,1,0.147936063675,1,0
154,0.30835563760699997,0.264924963646,0.484799587304,0.579388437081,0,1,1,1,0.251986237608,0,1,0.204433354786,0,0
155,0.28789962920699996,0.25476744545499996,0.46298372558,0.598345257024,1,0,1,1,0.220563234199,0,1,0.189000167834,1,0
156,0.312196851415,0.274449612651,0.4616255993399999,0.591982009904,0,0,0,0,0.191789654419,1,1,0.28284234827599997,0,0
157,0.288004078677,0.258706798181,0.44529407695,0.586108015435,0,1,1,1,0.072334668359,0,1,0.18739185872000003,0,0
158,0.27011461560100003,0.26780654991999997,0.44793976733499996,0.6296927373569999,0,0,0,1,0.8701981649339999,0,0,0.137526729687,0,0
159,0.271268885469,0.297494450936,0.42937674876000004,0.584961429338,1,1,0,1,0.206935168963,0,1,0.0473615036963,0,0
160,0.286549047622,0.309640185793,0.423126560625,0.5983946243330001,1,1,1,1,0.018107061225199998,1,0,0.029135207843,0,0
161,0.326790039007,0.289064234152,0.48887543021200003,0.6028771100639999,1,1,1,1,0.357167178419,1,1,0.17899562786200002,0,0
162,0.284977460009,0.271285163175,0.544348564595,0.620248837288,0,1,0,1,0.17909886392000002,1,0,0.07822425528230001,1,0
163,0.291082460956,0.264474109927,0.562543697974,0.5903878351030001,0,0,0,1,0.0809678591741,0,1,0.17464975205299998,1,0
164,0.32431196727899997,0.260061096471,0.575690027326,0.612068222115,1,1,1,0,0.172059794808,0,1,0.0445225121011,0,0
165,0.33007027173000003,0.287957282271,0.568905961201,0.647044481022,1,0,1,0,0.215223635865,1,0,0.218332188279,1,0
166,0.345543333094,0.300203159157,0.5791586319550001,0.683335346698,0,0,1,1,0.215791736044,1,0,0.210906738598,1,0
167,0.343707078111,0.299104933151,0.576041027317,0.689508739857,1,1,0,1,0.210994881665,0,1,0.22747039056999996,0,0
168,0.33237581911999997,0.30734363996999997,0.589929129588,0.7252298916069999,1,1,0,1,0.25962268730099997,0,0,0.060065877886699995,0,0
169,0.318812957143,0.273262223495,0.594359289802,0.7354075032590001,1,0,0,0,0.227827490736,0,1,0.662922196236,0,0
170,0.299002631119,0.33477853155299997,0.599624920827,0.7061105613240001,0,1,1,0,0.231002754169,1,0,0.172975637498,0,0
171,0.314029902555,0.290078133779,0.5979099067360001,0.71278718543,0,0,1,1,0.33839210141599996,1,1,0.229638951508,1,0
172,0.297579696532,0.28542142615,0.578117889975,0.749035084378,0,0,0,1,0.08824932172139999,0,0,0.17411123413600002,0,0
173,0.29667984726999996,0.265465631186,0.599853563745,0.7214999283519999,0,1,0,0,0.20354196274099998,0,0,0.24135503665199998,0,0
174,0.262547325081,0.255388892322,0.5951793305799999,0.718207213202,0,1,1,0,0.220084786386,1,1,0.21520190195799999,1,0
175,0.302086990373,0.277580326214,0.615067851518,0.7375749231119999,1,0,1,0,0.199341583363,1,1,0.10108923097000001,0,0
176,0.301573981219,0.266991689312,0.610989389342,0.7019089432529999,1,1,1,1,0.202534354666,1,1,0.218933191178,0,0
177,0.293663901096,0.26002361680999997,0.588932987054,0.7048760480930001,0,0,0,0,0.19244559580499998,1,0,0.18214191275299998,1,0
178,0.260329634581,0.277001086645,0.546314102677,0.667861534161,0,0,1,1,0.238312289679,1,0,0.188033612694,1,0
179,0.272313937295,0.27828270352400003,0.557148313243,0.6685178776430001,0,0,1,1,0.254849981708,1,0,0.215298195241,0,0
180,0.27785927796300003,0.29822544734,0.56621365041,0.6824221552549999,0,1,1,0,0.020668039926900004,1,0,0.157123167259,1,0
181,0.25215694809,0.297271986599,0.519610590778,0.6729683103890001,1,1,0,1,1.1785023889200001,0,0,1.43001531033,0,0
182,0.281867910451,0.305194528114,0.5237156661060001,0.652600953877,0,1,0,0,0.25726063422,0,1,0.236347182259,1,0
183,0.28545013609700004,0.31049137264000004,0.5169826824379999,0.642219415924,0,1,1,1,0.193880033664,0,1,0.18890749686900002,1,0
184,0.331730327057,0.336456862839,0.473760946105,0.649534448754,1,0,1,1,0.21836841145599997,0,1,0.20280904710099998,1,0
185,0.334074903047,0.301369161484,0.439629070248,0.65903138496,0,0,0,0,0.200278556241,1,0,0.862002670856,1,0
186,0.319130716376,0.322259063262,0.43370048122599997,0.6687894641,1,1,1,0,0.22239431585900002,0,1,0.38822161099,1,0
187,0.300685432674,0.33184728833,0.41820384762100005,0.666699697495,1,1,1,0,0.324403011837,0,1,0.11429680547700001,0,0
188,0.310352293635,0.373582723672,0.378982681321,0.6498365893,1,1,0,0,0.247623155788,1,0,0.0880153803619,0,0
189,0.315444762859,0.391968020053,0.382492512668,0.643621213361,1,0,1,1,0.653453759302,0,1,0.214024648665,0,0
190,0.250025007678,0.42280888685400003,0.425706559083,0.628293827573,1,1,1,1,0.027481921615599997,1,1,0.18255304582600002,1,0
191,0.297961591819,0.37613229621,0.408514284592,0.627140139462,1,0,1,0,0.737319170876,1,1,0.217960598842,1,0
192,0.30639457131,0.416743794085,0.413214092349,0.611332483304,1,0,1,0,0.202075527741,1,1,0.21586146566199998,1,0
193,0.34360764832199997,0.41395669799699997,0.408868567126,0.628745087695,1,1,0,1,0.0479951074558,0,0,0.16569689169000001,0,0
194,0.38375782814599996,0.383083724411,0.402040930083,0.6449937332419999,0,1,1,0,0.21642533980300002,1,1,0.16886611792599998,0,0
195,0.382554092648,0.370995143083,0.35510933739699996,0.602230775573,1,0,0,0,0.214276097894,0,1,0.18537513327100003,1,0
196,0.391902180941,0.37626106578699997,0.276607029553,0.638990128159,0,1,1,1,0.225497736656,0,1,0.127259269813,0,0
197,0.370997272235,0.371597615973,0.269823638426,0.611632610805,0,1,1,1,0.154030613415,0,1,0.7570722736929999,1,0
198,0.39594993521099997,0.40557406212499997,0.275922025872,0.614589765489,1,1,0,0,0.984127908872,1,1,0.139484290611,1,0
199,0.414563434795,0.38096063547,0.276007116375,0.614520555453,1,1,1,1,0.195575278405,1,1,0.23331892455800002,0,0
200,0.387324682237,0.39814228106399996,0.323776603972,0.659516286574,1,1,1,0,0.201504710824,0,1,0.199270344446,0,0
201,0.39000984367700003,0.390501605859,0.332197054206,0.673918633831,0,0,0,1,0.14868558160599998,0,0,0.29039759767900003,1,0
202,0.34494796745399997,0.41770303153300004,0.283408396417,0.667912570531,0,1,1,1,0.199956169954,0,0,0.216311840511,1,0
203,0.364050815023,0.408832232551,0.27891809831500003,0.621881962996,0,0,1,0,0.235170834546,0,0,0.182244545092,1,0
204,0.369556034497,0.44531859372,0.26558683073899997,0.595588518879,0,1,0,1,0.473011317328,1,0,0.0602186189553,0,0
205,0.3739321863,0.43746568996699997,0.276204404585,0.604685892099,1,1,1,0,0.9055568166590001,0,0,0.07698964862360001,1,0
206,0.366758817251,0.456348513532,0.276427668006,0.622046538191,0,0,1,0,0.0237050515643,0,0,0.181405374795,1,0
207,0.40685153161,0.43611298671899995,0.278997477659,0.628034559423,0,1,0,1,0.18689801605700002,1,1,0.141990934546,1,0
208,0.415415887773,0.38973593196,0.267030248156,0.632699529371,0,0,1,0,0.443363249653,0,0,0.169271515662,1,0
209,0.41265188109800005,0.36241197590199997,0.303056644353,0.615640287461,0,0,1,0,0.44660763898500005,0,0,0.276512649738,1,0
210,0.469162169058,0.333019797365,0.296193492293,0.635785263877,0,1,1,1,0.204670616603,0,0,0.202429609309,0,0
211,0.470674620364,0.322592708722,0.25597250676800004,0.6337164043,1,0,1,0,0.0932170287579,1,1,0.192226445576,0,0
212,0.460300346593,0.29163456059799997,0.259696698865,0.621377839925,1,0,1,0,0.216434093738,1,0,0.195475060946,0,0
213,0.47466715772,0.29915724214899997,0.282742575794,0.591498816897,1,0,1,1,0.056937100866,0,1,0.0813210351625,0,0
214,0.504603574629,0.28365334266,0.287145231206,0.619788837174,0,1,1,1,0.35875133874799997,0,1,0.17520215552,0,0
215,0.5179275169349999,0.317206857214,0.284999548335,0.611747661594,1,0,1,1,0.220718692005,0,0,0.229216649622,0,0
216,0.506866831105,0.308947754435,0.301369755331,0.61040475979,0,1,0,0,0.029176260777599997,0,1,0.13087313556299998,0,0
217,0.512402260722,0.310728191318,0.35237536274000003,0.616772564166,1,1,1,1,0.829713631627,1,0,0.169003766004,1,0
218,0.471773638442,0.289255564576,0.310370346321,0.6383990148650001,0,0,1,1,0.206489623871,1,0,0.0468830558839,0,0
219,0.48330588515600004,0.268757578112,0.351258008618,0.639043591003,0,1,1,0,0.24183952166099998,1,0,0.199425802253,0,0
220,0.491774554484,0.279269013887,0.365009848636,0.630294187808,1,1,0,0,0.08486336013450001,1,1,0.20520792708000002,0,0
221,0.4428232921,0.261054708974,0.35871935082199996,0.617886127534,0,1,1,1,0.2080061676,0,1,0.152486600443,0,0
222,0.471622064632,0.256336422676,0.348851599339,0.616556071857,1,0,1,0,0.8112023801039999,1,1,0.211850956111,1,0
223,0.44703254058799996,0.265976315546,0.33168449886,0.579821298357,1,0,1,0,0.427959946824,1,1,0.201886563495,1,0
224,0.47726727833800003,0.266456858852,0.363267347204,0.532048304491,1,1,1,1,0.460606086218,1,1,0.22919310455699998,1,0
225,0.46613452775700004,0.31188818581,0.378211160541,0.569364379704,0,1,0,0,0.20529003295099998,0,0,0.147014485648,1,0
226,0.502987650859,0.27575671564,0.37329930913599996,0.530186481491,1,0,1,0,0.712500860301,1,1,0.16379728785,1,0
227,0.49198394649899996,0.256408254871,0.35091762547899996,0.517507132584,0,0,0,1,0.166611828799,0,0,0.164331881589,1,0
228,0.48343536504199996,0.250134508781,0.325516824681,0.5333129038800001,1,0,1,0,0.167091484052,1,1,0.212871846018,0,0
229,0.491508120269,0.269354871663,0.316299076665,0.529699898975,0,1,0,0,0.282291454108,0,0,0.45605132341399995,1,0
230,0.514585334514,0.25026959544300004,0.371026883667,0.5339570627269999,1,1,1,0,0.381567715006,0,0,0.24881399277199998,0,0
231,0.537771720248,0.271209012169,0.330258220961,0.52899511053,0,0,0,0,0.400980018087,1,0,0.22545245768199998,0,0
232,0.499970326048,0.29564739609,0.304565104775,0.499300216099,1,0,1,1,0.254840322193,0,0,0.1940179836,1,0
233,0.502983692007,0.250714120095,0.353639361889,0.477631940638,0,0,1,0,0.426065776462,0,0,0.101310494217,0,0
234,0.546137420628,0.26597895863000004,0.359467923259,0.41947543633,0,1,1,1,0.789389385885,0,0,0.18471104166900001,0,0
235,0.592925514222,0.28217136737,0.349648524271,0.431075129394,1,0,1,1,0.00877265005147,0,1,0.273158383432,0,0
236,0.594199417012,0.291388508476,0.375611251387,0.468963988712,1,0,1,0,0.257274821631,1,1,0.273817041557,1,0
237,0.6197678639,0.265863566374,0.38854992593000004,0.480646803957,0,1,1,0,0.201892902552,1,1,0.319632419261,1,0
238,0.6233365858550001,0.29086697145999996,0.38755976691699995,0.521147880042,1,0,1,0,0.213145632873,1,1,0.189696256576,0,0
239,0.641058541748,0.263482552578,0.371366214357,0.483976368898,0,1,1,0,0.0643290441067,1,1,0.17141170177600001,1,0
240,0.612355219784,0.265414460256,0.337239039154,0.501295097224,1,1,0,1,0.190194325277,0,1,0.145287545626,1,0
241,0.634093862421,0.268380366086,0.298657384866,0.540034380674,1,1,1,1,0.340011881202,1,1,0.591195473552,1,0
242,0.618214800636,0.277078994087,0.326922528782,0.523692768819,0,1,0,0,0.234158094854,0,1,0.17330647585900003,1,0
243,0.607678752249,0.2563835089,0.32034010293000004,0.557276994581,1,0,1,0,0.21340191185899998,1,1,0.18183190272,0,0
244,0.608262791571,0.255075881858,0.280477163054,0.5564884378530001,0,1,1,0,0.27257820886,1,1,0.16633109916799999,1,0
245,0.587928459908,0.28994625765500004,0.274181929713,0.525412915499,1,0,1,0,0.33709863209200003,1,1,0.0362606088629,0,0
246,0.57848936567,0.269428074922,0.29814207466,0.539813147624,1,0,1,0,0.00167954803055,1,0,0.039393310062199996,1,0
247,0.614283110407,0.30570561716899997,0.28878078621,0.552440802311,0,0,0,1,0.300750785741,0,0,0.19717181498599998,0,0
248,0.635792277161,0.310584119268,0.307331657307,0.5565566916800001,0,0,1,1,0.194664567332,1,0,0.173761378606,0,0
249,0.637732329711,0.256973054362,0.285246489433,0.537603834411,0,0,1,0,0.195203990828,0,1,0.150354866403,0,0
250,0.64135913956,0.253507081284,0.2902838273,0.54044036307,0,1,0,0,0.9184235914319999,0,1,0.156465112854,0,0
