trial,rwrd_prob0,rwrd_prob1,rwrd_prob2,rwrd_prob3,symbol0,symbol1,common,choice1,rt1,final_state,choice2,rt2,reward,slow
1,0.36430517898000003,0.7079860451019999,0.35120550456,0.601349357728,1,0,0,1,0.7714800516660001,1,1,1.50008406829,1,0
2,0.380759443615,0.690802109493,0.368331144118,0.617243340443,0,1,1,0,0.417930181361,1,1,0.9091171984399999,0,0
3,0.36275816264300004,0.729113798323,0.34056112801700006,0.6087314069449999,1,1,1,1,0.336213992888,1,0,0.904582642449,0,0
4,0.358263186916,0.727524128776,0.315304558786,0.674820092414,1,1,0,1,0.262207032576,0,0,0.8199809646449999,0,0
5,0.333618024285,0.721423024429,0.307440654529,0.69687611486,0,0,1,1,0.5162632143429999,1,1,1.2181341186499999,1,0
6,0.331948047738,0.711714209424,0.34997530270300004,0.679214229403,0,0,1,1,0.407822667527,1,1,1.14162986226,0,0
7,0.317373570527,0.733296537673,0.352775974978,0.678468386081,0,0,1,0,0.7154253689419999,0,0,0.665294406546,0,0
8,0.350142103633,0.7444035662630001,0.362370154363,0.652740278636,1,1,1,0,0.665516576244,0,1,0.508762572133,1,0
9,0.339896777157,0.743715678652,0.360742302826,0.7007437942110001,1,0,1,0,0.5276521281350001,1,1,0.645521303388,1,0
10,0.319136692665,0.730648156261,0.36453898825900005,0.698199278388,1,0,1,1,1.20302748475,0,0,0.617178668207,1,0
11,0.34419235932400005,0.7186803221699999,0.38297111618600005,0.6840552984430001,1,1,0,1,0.35064777861999996,0,0,0.7137847543889999,1,0
12,0.316785048759,0.7210460119050001,0.38433819591799995,0.674270886969,0,0,1,0,0.31400819190400003,0,0,0.51987286822,1,0
13,0.368992123907,0.6889407652670001,0.431082714412,0.718179938842,0,0,1,0,0.333348728244,0,0,0.544431373863,1,0
14,0.376476846948,0.6813105955419999,0.385922548468,0.7418256544699999,1,1,0,0,0.35258240579000005,1,1,0.867747147942,1,0
15,0.41012857058799995,0.604853006896,0.37790907230099996,0.7266589838609999,0,0,1,0,0.32409789593800004,0,0,0.532536239168,0,0
16,0.427250674791,0.5809168564180001,0.332441776461,0.747350594183,0,1,1,0,0.354039790714,1,1,0.591826569987,1,0
17,0.430855035711,0.562136546428,0.367217392099,0.722770051025,1,1,0,1,0.426658492271,0,1,0.640556897328,0,0
18,0.427580645148,0.5285146641139999,0.36379167743,0.718397582369,0,0,1,1,0.299363707191,1,1,0.678534633872,1,0
19,0.45944505259499996,0.531874943311,0.360139671687,0.702005468396,0,0,1,1,0.318793292528,1,1,0.364511047056,1,0
20,0.488834318265,0.48840208766599996,0.311976156608,0.705653835447,0,0,1,1,0.729967220914,1,1,0.362582155245,1,0
21,0.53660033549,0.468475879302,0.310310853044,0.704107823732,1,0,1,0,0.591986556318,1,1,0.315240086658,1,0
22,0.534654817209,0.479584851429,0.267598866877,0.6798423683329999,1,0,1,0,0.413973991052,1,1,0.43313401451300004,1,0
23,0.528582471665,0.47575023830200003,0.302321758023,0.686663454666,0,1,1,0,0.763938658222,1,1,0.385900615887,0,0
24,0.55181967723,0.44445693517800006,0.27736402994000003,0.729695271481,0,1,0,0,0.330004712051,0,0,0.389113926267,1,0
25,0.52098862856,0.500537668747,0.286471218297,0.735159694551,1,0,1,1,0.31726195165800003,0,0,0.699030694132,1,0
26,0.48198851594,0.499716486136,0.28940859961800003,0.710711156381,1,0,1,1,0.40858758331,0,0,0.750474450032,0,0
27,0.445268346141,0.49102965391500003,0.298864195598,0.6981549199629999,1,1,1,1,0.366678710921,1,1,0.38046862713299995,0,0
28,0.406145178168,0.479476011974,0.285259957836,0.728286157511,0,1,1,0,0.559258484483,1,0,0.693132028267,0,0
29,0.390964269812,0.467539598784,0.286658471749,0.692888289878,0,1,0,1,0.346723887438,1,1,0.7098777674240001,0,0
30,0.36789419022799996,0.482098992196,0.286780872169,0.688777407169,1,0,1,1,0.262050668577,0,1,0.761110220621,0,0
31,0.372799158586,0.46641401507200003,0.318455042227,0.710805589095,0,1,0,1,0.262714460923,1,0,1.1538621756999998,1,0
32,0.36759273529700004,0.494100419259,0.347824507183,0.7401653056949999,1,1,1,0,1.93015570292,0,1,1.3792946896899998,1,0
33,0.34151915638400004,0.51192441943,0.324551795308,0.730036193962,0,0,1,0,0.9398170661949999,0,1,0.37245542494,1,0
34,0.35305462586099995,0.52391406822,0.304060463152,0.749954933388,0,0,0,0,0.7085532013420001,1,0,0.474499838957,0,0
35,0.34773153505500004,0.517220997535,0.31693546981,0.749650276756,1,0,1,1,0.47465771226099995,0,1,0.560506981592,0,0
36,0.33417287657,0.508287883679,0.325904625289,0.739640110587,0,1,1,0,1.1313204034200002,1,1,1.35877387683,1,0
37,0.330798948494,0.502215465297,0.329438579337,0.7338823091399999,0,0,1,1,0.48456962016599997,1,1,0.693177307418,1,0
38,0.308354081378,0.49624043303800003,0.29514879424199997,0.740920314076,0,1,1,0,0.594630858707,1,1,0.8486145938330001,1,0
39,0.314179563844,0.525650590107,0.254971216296,0.7411708828010001,1,0,1,0,0.558159106709,1,1,0.37472843829499997,1,0
40,0.316494198738,0.530723574404,0.273935594534,0.660674417691,1,1,0,1,0.324137439729,0,1,1.86062473757,0,0
41,0.353986933087,0.519547112591,0.27151161974,0.627444722161,1,0,1,0,0.581296148887,1,1,0.40587053241899995,1,0
42,0.330993181912,0.543264239627,0.282906614232,0.622908524033,1,1,1,0,0.5365757431139999,0,0,1.6891924403100003,1,0
43,0.291656971725,0.560280422916,0.318747907872,0.6344337706750001,1,0,1,1,0.487012581264,0,0,1.18097382171,0,0
44,0.286967112571,0.536603836604,0.275210386568,0.638590345647,0,0,1,1,1.07470667412,1,1,1.11804968813,1,0
45,0.28076477713799997,0.511383867806,0.253149613167,0.6198312972259999,1,0,1,0,0.37711796999700004,1,1,0.817583282696,0,0
46,0.27565376653,0.526137512884,0.253617686602,0.62441310952,0,1,1,0,0.287131997478,1,0,0.7676735844149999,0,0
47,0.268720435226,0.548059236449,0.259960011547,0.6224105226359999,1,1,1,0,0.405201306575,0,1,0.355028989221,1,0
48,0.264752020794,0.570096145213,0.278690374258,0.623169773826,0,1,1,1,0.8831677172939999,0,1,0.521148230959,1,0
49,0.253169333724,0.578844093701,0.290884613069,0.6168226461399999,0,0,1,0,0.515953806814,0,1,0.417813059292,0,0
50,0.254757980889,0.536377337242,0.253389174605,0.611664533177,0,1,1,1,0.391321737645,0,0,0.55441059677,0,0
51,0.254581667872,0.510326110081,0.259727595338,0.570208140039,1,0,1,0,0.29328875449999997,1,1,0.285713854484,1,0
52,0.256590074349,0.519961839203,0.298499728408,0.533889726249,0,0,1,1,0.261806463025,1,1,0.23292560967599998,0,0
53,0.263310885662,0.532652271252,0.300543229587,0.537800690686,1,1,0,1,0.251617748582,0,1,0.686713557755,0,0
54,0.316737768678,0.53575490491,0.317042991696,0.567849222362,0,1,0,1,0.32430587817,1,0,0.68208451927,1,0
55,0.332837126447,0.533077853844,0.299409051898,0.578068481046,1,0,1,0,0.35703213883900004,1,0,0.37884612424099995,0,0
56,0.355373837473,0.498682891387,0.277141072963,0.579357036325,0,0,1,1,1.23492423138,1,1,0.6863039323729999,1,0
57,0.381385193508,0.520004966638,0.28988675679299997,0.6320213904950001,0,0,1,1,0.387869051489,1,1,0.36172909605,1,0
58,0.38522801456999994,0.50787735423,0.277813360213,0.644681286747,0,1,1,0,0.340487439111,1,1,0.845022749754,0,0
59,0.406585791001,0.498934975267,0.335047416295,0.645712917007,1,0,1,1,0.383896258825,0,0,0.659166024457,0,0
60,0.41120218306,0.511473628462,0.35835538537199996,0.633990095919,1,1,1,0,0.381953481408,0,1,0.374411484242,0,0
61,0.43845571148400003,0.531992769112,0.401480911233,0.5940810824080001,1,0,0,0,0.347907182571,0,1,0.66296675635,0,0
62,0.396479730117,0.5362314134489999,0.350005019569,0.608460142628,0,0,0,1,0.543192234445,0,0,0.490471606501,1,0
63,0.41261513964100005,0.560741362387,0.34231739766400004,0.656771291793,1,0,1,1,0.37860433357699996,0,0,0.259055301842,0,0
64,0.400925706677,0.562678615404,0.356556827786,0.644738778904,0,1,1,0,0.23514941968699998,1,0,0.326186170359,0,0
65,0.37175609394000003,0.595096430528,0.370152915092,0.655881787653,1,1,1,1,0.28361652423300004,1,1,0.36139221917,0,0
66,0.37978790381800004,0.6120532716179999,0.334754848576,0.618511272575,0,0,0,0,0.6255248230870001,1,1,0.703424884757,0,0
67,0.38540641625100003,0.570696346813,0.327653974575,0.622318453497,0,1,1,0,0.32763631061799997,1,0,0.312110391777,0,0
68,0.41756004804200003,0.5762539128459999,0.328032585793,0.6054788887479999,1,1,1,0,0.277570550199,0,0,0.38730728816200005,0,0
69,0.394596082423,0.543111627992,0.314147082568,0.575810003546,1,1,0,0,0.272755565336,1,1,0.37456271660400003,1,0
70,0.368365597023,0.528487068131,0.281996115034,0.594145294721,0,0,1,1,0.524005345354,1,1,0.297853496592,0,0
71,0.362155941972,0.485222874725,0.254861659884,0.625276656889,1,0,1,0,0.28196292965799996,1,1,0.391712647644,0,0
72,0.337941488631,0.48777161200900004,0.292506215629,0.606447637343,1,0,1,0,0.386489244843,1,0,0.325700777866,1,0
73,0.309342484702,0.46659201817699997,0.28269153585900003,0.633458431963,0,0,1,1,0.344437290339,1,0,0.39552515211499994,0,0
74,0.324568406849,0.5225951874220001,0.286978088035,0.659033713143,1,0,1,1,0.569041799599,0,1,0.313533062685,0,0
75,0.3052234441,0.5295451414419999,0.28026072802700003,0.629034134586,1,1,1,0,0.497632956943,0,0,0.36214687167900006,0,0
76,0.367771194841,0.5234721413719999,0.312792910948,0.625388000964,1,0,1,0,0.2956837197,1,1,0.282777350644,1,0
77,0.325215390977,0.544802958029,0.296278173564,0.617457078454,1,0,1,0,0.352211418617,1,1,0.275417073802,1,0
78,0.329304285396,0.557841583159,0.286510730356,0.65507563711,1,0,1,0,0.43813132342200006,1,1,0.438603132171,1,0
79,0.335099219051,0.5450968618990001,0.278226162227,0.679417158854,1,1,1,1,0.48144203831,1,1,0.439241870053,1,0
80,0.335375279188,0.581217082958,0.266050508639,0.70044501246,1,1,1,1,0.5860133307859999,1,1,1.16528459606,0,0
81,0.338459946363,0.601831454583,0.283845675843,0.705193584136,1,1,0,1,0.824329272397,0,0,0.579641648729,0,0
82,0.32334878541400003,0.585243606591,0.334258258575,0.729034438074,0,0,1,1,0.27315704047,1,0,0.24426954617899999,0,0
83,0.32250473267499996,0.5830533711479999,0.36558786357100004,0.727825076102,0,0,1,0,0.25496900944,0,1,0.271428584365,0,0
84,0.306059586998,0.5480201631080001,0.39002591671099995,0.744010795777,0,1,1,0,0.319479120727,1,1,0.472008278236,1,0
85,0.31171209815,0.529337838421,0.38633104345700003,0.7474988635809999,0,1,1,0,0.403898474485,1,1,0.569743022709,1,0
86,0.29751364012,0.502224379286,0.36687664425300004,0.7476673258159999,1,1,1,1,0.30324654527600003,1,1,0.34637282309100004,1,0
87,0.305601782961,0.54472062429,0.35946496005999995,0.7485125184729999,0,0,1,1,0.330395320188,1,1,0.426879756386,1,0
88,0.323302300357,0.592487024392,0.335356074514,0.7449567666,0,1,0,0,0.373671321061,0,1,0.456835536768,1,0
89,0.283226583279,0.590234242187,0.306698177834,0.72175093811,1,0,1,1,0.27826362306200003,0,1,0.516057647,1,0
90,0.258418569415,0.640737377091,0.274804096681,0.708464754189,1,1,0,0,0.569579715906,1,1,0.378140675076,1,0
91,0.277087139782,0.655746340173,0.26966072124400003,0.717192204371,0,0,1,0,0.5222433826780001,0,1,0.38414016251599997,1,0
92,0.26263053230300004,0.641118566471,0.2598362415,0.749323744409,0,0,1,0,0.370841676017,0,1,0.355354395383,0,0
93,0.286165914409,0.627643225328,0.270409103305,0.741166878612,1,0,0,0,0.323488136712,0,0,0.34527314345700005,1,0
94,0.319946773732,0.660617198945,0.250222875325,0.7169456564669999,1,1,1,1,0.41734426915399997,1,1,0.353853240614,0,0
95,0.34165322162199996,0.6283425061869999,0.281484984899,0.711609433896,1,0,1,1,0.356664773998,0,0,0.33310482455400003,1,0
96,0.359482442927,0.633239282989,0.26187494579500004,0.726726099184,1,1,0,0,0.357186389812,1,1,0.9176680150799998,0,0
97,0.361570809268,0.62855087621,0.25620437612,0.6899488856839999,0,1,1,1,0.30197963464600003,0,1,0.870428881095,1,0
98,0.318384753704,0.5959568744899999,0.271906510788,0.717327338028,0,1,0,1,0.44672470246299995,1,0,0.516544548797,0,0
99,0.315051507003,0.567627723776,0.265919659006,0.7466856456640001,1,1,1,0,0.32737640829500003,0,1,0.23985120667399998,0,0
100,0.32640784191,0.593986118347,0.26356216617199996,0.7338459356020001,0,0,1,1,0.277314270208,1,0,0.371016453538,0,0
101,0.300202021528,0.6128258038759999,0.320142358175,0.7479554347540001,1,1,1,1,0.29645195595400003,1,1,0.531639108266,1,0
102,0.256185348784,0.5498810424480001,0.28512578306499997,0.7448697621160001,1,1,1,1,0.601137472632,1,1,0.305697354762,1,0
103,0.25005061645,0.550229292288,0.28306558284899996,0.7438565764759999,0,0,1,1,0.51639482574,1,1,0.564930754595,1,0
104,0.258395146507,0.569511480651,0.292656925331,0.704745993865,1,1,1,1,0.37844555468900004,1,1,0.37359012045199996,1,0
105,0.253710532129,0.571206632002,0.28418726883400003,0.70020793391,1,1,1,1,0.643053589686,1,1,0.256928389212,1,0
106,0.30673771691199997,0.563486268846,0.291318156071,0.749157397681,0,1,1,0,0.31573151637200003,1,1,0.537481627985,1,0
107,0.273662841725,0.531215520789,0.303172453765,0.7019669974420001,1,1,1,1,0.29763857155699996,1,1,0.25008882260000004,1,0
108,0.292002424304,0.553181640836,0.306766636726,0.721974744419,1,0,0,0,0.44747724194399996,0,1,0.6853642390700001,0,0
109,0.296248985133,0.571389430341,0.283597034266,0.715126694074,0,1,1,0,0.328259955451,1,1,0.272733831343,0,0
110,0.342685290693,0.572605704277,0.305170927808,0.6970571415919999,1,0,1,1,0.42475616422799994,0,0,0.44657588498899997,0,0
111,0.383264911624,0.5654144162529999,0.310228648056,0.7308433288230001,0,1,1,0,0.37741379378,1,0,0.281852750391,1,0
112,0.42973277138599997,0.557897318188,0.31005481386100003,0.708653543399,1,0,1,0,0.375306502116,1,0,0.327732302418,0,0
113,0.40729112030299996,0.5668163867939999,0.310246754531,0.7168137345319999,0,1,0,0,0.322447923695,0,0,1.0509816067,0,0
114,0.409009371943,0.5670421654119999,0.286992125483,0.713833358108,0,1,1,0,0.504653036435,1,1,0.659840381939,1,0
115,0.36826824495099997,0.5926790583680001,0.297192843348,0.6801904648999999,1,1,1,1,0.8440423052159999,1,1,0.40208338427199997,1,0
116,0.363951067762,0.613754725357,0.283453927339,0.667132048363,1,0,1,0,1.10881847679,1,1,0.280237190302,1,0
117,0.395386074684,0.662625090784,0.34463845450099995,0.651690661814,1,0,0,0,0.7816195627670001,0,1,0.55827381389,1,0
118,0.413737435247,0.639595329851,0.295001643601,0.674923618668,0,0,1,0,0.905111201066,0,1,0.276469361259,0,0
119,0.421086924071,0.636627462972,0.31170119170899996,0.669223384062,1,0,1,0,0.36723292772200006,1,1,0.364980742777,0,0
120,0.42673145056100004,0.634543390896,0.32824662289900003,0.602943365767,0,1,1,0,0.09842993036360001,1,0,0.346814445739,0,0
121,0.420995335811,0.6782827002290001,0.316347119386,0.620532057297,1,1,1,0,1.01900245202,0,1,0.259608914921,0,0
122,0.40616315854900004,0.676689962578,0.300918744606,0.61508483904,0,0,1,0,0.32638026698399997,0,0,0.268149468287,1,0
123,0.405997582315,0.665064529411,0.285468842575,0.620221989035,1,1,1,0,0.278927113548,0,0,0.25266188579300003,0,0
124,0.410027542027,0.7027913566959999,0.264706038555,0.651507892958,0,0,1,1,0.410043760789,1,1,0.325203914655,1,0
125,0.431086741626,0.737361853811,0.253095953959,0.621518989979,1,1,1,1,0.346633027277,1,1,0.264489403622,1,0
126,0.43203280186099996,0.7282654919179999,0.261037100578,0.628475013349,0,1,1,0,0.304520700572,1,1,0.542311102176,1,0
127,0.40687676695200004,0.715077935622,0.281898797804,0.657719484475,0,0,0,1,0.42252692071900005,0,0,0.505618689785,0,0
128,0.460606744406,0.707917875182,0.281727117668,0.665409056678,1,1,1,1,0.276426195135,1,1,0.242303827326,1,0
129,0.44970240681900003,0.713248692611,0.311221798348,0.675506334683,0,0,1,1,0.381021334631,1,1,0.701475466398,1,0
130,0.49182404175399996,0.7291469641689999,0.32903355029,0.643393073266,1,0,1,0,0.365724226429,1,1,0.270150203017,1,0
131,0.490188724322,0.742834924835,0.336754289069,0.649609866935,0,1,1,0,0.30225523374200003,1,1,0.289357014933,1,0
132,0.48684276358999995,0.715114431319,0.342840554418,0.672492153144,0,0,1,1,0.270737624529,1,1,0.473859289908,0,0
133,0.498887139748,0.73292964722,0.366650716012,0.650466760608,0,1,0,1,0.351397299492,1,0,0.565156546626,1,0
134,0.502129394407,0.697422085067,0.31983742263799997,0.677371175311,1,0,1,0,0.498654454577,1,0,0.27518494269,0,0
135,0.517019255325,0.713537250538,0.295177018286,0.6907610409909999,0,0,1,1,0.5313073630240001,1,1,0.251783470273,0,0
136,0.512479177063,0.7237359357109999,0.28513640100000004,0.6873403698739999,0,0,1,0,0.355884463304,0,1,0.756353494932,1,0
137,0.527187894064,0.705028294689,0.294252528679,0.678782995453,0,0,1,0,0.28725787351599996,0,1,0.30377299086599996,1,0
138,0.5600987465839999,0.734496014145,0.304453382749,0.6581211562389999,0,1,1,1,0.271774818936,0,1,0.5709534853320001,1,0
139,0.59183710345,0.7395634107800001,0.335617468008,0.645654664682,1,1,1,0,0.23246647909,0,1,0.326137872598,1,0
140,0.6183770145,0.738777153432,0.33721391400300005,0.6822976655159999,1,1,1,0,0.40356763482600005,0,1,0.961464122462,1,0
141,0.6254608972160001,0.714406123939,0.32479059524,0.699151775583,0,0,1,0,0.308383012109,0,1,0.282194457047,1,0
142,0.609853738617,0.742417596383,0.33561641868000003,0.747356739756,1,0,0,1,0.276920341598,1,1,0.46667982780699996,1,0
143,0.637610441805,0.717111250842,0.35247777504199995,0.734240488099,0,0,1,1,0.6615763845679999,1,1,0.30208770088500003,0,0
144,0.666039988039,0.73410948507,0.342044913236,0.734984161473,0,0,1,0,0.33415892317699997,0,1,0.32132439704,1,0
145,0.653340549189,0.728802197733,0.357269772563,0.746284927313,1,0,1,1,0.422760561136,0,1,0.268539774564,1,0
146,0.651229535865,0.726095002073,0.36985280264799997,0.719668183541,0,0,1,0,0.316671511536,0,1,0.253070907452,1,0
147,0.642349239189,0.7037189475040001,0.362874219056,0.7054908923630001,1,1,0,0,0.250524408028,1,1,0.389604148536,1,0
148,0.6688124483510001,0.681248489094,0.354807404866,0.6900278310760001,0,1,1,1,0.315064403554,0,1,0.310179386938,1,0
149,0.6855707157719999,0.711661494771,0.357547596444,0.7176925869399999,1,1,1,0,0.134257812842,0,1,0.393301945826,1,0
150,0.722312027091,0.72824220191,0.42231740921300004,0.6987169603829999,0,1,1,1,0.35341886263000005,0,1,0.308570467791,1,0
151,0.69726602335,0.728602655571,0.398828452166,0.7047445963500001,1,1,1,0,0.367310506001,0,1,0.237125099954,1,0
152,0.7189358553820001,0.724664233324,0.37101133297600003,0.7275534016590001,1,1,1,0,0.27186628281999997,0,1,0.39493048593900004,1,0
153,0.716611604804,0.7155475429070001,0.347625355883,0.7215534279379999,0,0,1,0,0.38177960946999995,0,1,0.254209829017,0,0
154,0.69589637689,0.7305688155869999,0.360303497659,0.6914127533869999,0,0,0,1,0.379579344617,0,0,1.10809491597,0,0
155,0.6682521039679999,0.6883655682879999,0.315718375989,0.713070844013,0,0,1,1,0.19114200960299998,1,1,0.298215427934,1,0
156,0.652817380479,0.711070903731,0.270503360507,0.70295093255,0,1,1,0,0.37032579556199996,1,1,0.338772566751,1,0
157,0.6958722972300001,0.709558394331,0.265159820909,0.67008739155,1,1,1,1,0.552188899786,1,1,0.507398160399,1,0
158,0.686701702744,0.742259295707,0.281559808949,0.652521663969,0,1,1,0,0.7236070095749999,1,1,1.0735191529299999,1,0
159,0.641378562198,0.7124351836130001,0.252376954517,0.669404185555,0,1,1,0,1.16190979005,1,1,0.46401530072999997,0,0
160,0.6081865286779999,0.7181533863330001,0.252148298061,0.686758176503,0,0,1,0,0.453435072566,0,1,0.296641826524,1,0
161,0.582678328952,0.694257637447,0.259109468076,0.676616749844,0,1,1,1,0.30202612124,0,1,0.377171701255,0,0
162,0.584111832689,0.73073837515,0.267054216892,0.6308231992710001,1,0,1,0,0.40395099829899994,1,1,0.289744000739,1,0
163,0.583878193506,0.670691096911,0.284760203343,0.656746836227,1,0,0,0,0.321877406398,0,1,0.570364554515,1,0
164,0.6064597783969999,0.714541247105,0.258575704563,0.660402892798,0,0,0,0,0.727788991914,1,1,0.36573630086900005,1,0
165,0.581431764283,0.702786405141,0.25188455644200003,0.689960542243,1,1,1,1,0.347218637622,1,1,0.289051833459,1,0
166,0.5408498931719999,0.7099495657610001,0.276411594705,0.6971749055419999,0,1,1,0,0.473061169416,1,1,0.302922346558,0,0
167,0.569020458648,0.6825440537530001,0.260613000729,0.7452693202770001,1,1,0,0,0.425709743137,1,1,0.647566109824,1,0
168,0.55402785873,0.7175555362739999,0.25043624997499997,0.748717372059,0,0,1,1,0.370435371107,1,1,0.634967035269,0,0
169,0.5212526397330001,0.695423513441,0.255435091668,0.713889699287,0,1,1,0,0.401175688236,1,1,0.510959818376,1,0
170,0.525500695995,0.729315165565,0.262981344178,0.729549677808,0,0,1,1,0.9031469915170001,1,1,0.426469225422,0,0
171,0.535633208814,0.719566024329,0.280861259871,0.745323425471,0,1,1,0,0.325245269612,1,1,0.25904594415,1,0
172,0.545732015583,0.7357757248800001,0.269456410639,0.7494343558390001,0,0,1,0,0.40048835073100003,0,1,0.240962357027,0,0
173,0.531373972072,0.7411467480399999,0.261235002269,0.732436840965,0,1,1,0,0.646351723008,1,1,0.308222120193,1,0
174,0.506150073193,0.745578485858,0.25506152524500003,0.726862540239,0,0,1,1,0.870971929039,1,1,0.25298819753699997,1,0
175,0.509320410419,0.7343169485969999,0.252132282172,0.73664777235,1,1,1,1,0.32503457063200003,1,1,0.301485488183,1,0
176,0.5422010717319999,0.7224467479800001,0.262074131669,0.747527096676,1,1,1,1,0.30160502514000004,1,1,0.216707523554,1,0
177,0.548710649714,0.7362225317669999,0.278223589472,0.7216205945,0,0,0,1,1.07805099217,0,1,0.390820648379,1,0
178,0.560740192671,0.7251241164300001,0.259512269257,0.7359518281919999,0,1,1,0,0.24692380998100003,1,1,0.252688751421,1,0
179,0.582713239692,0.715142019515,0.26184581704599996,0.730361010615,0,0,0,1,0.482052401258,0,1,0.239956858026,0,0
180,0.616239400199,0.6850715337569999,0.25300158425999997,0.700078804213,1,1,0,1,0.28266445462900003,0,0,0.28309188981,1,0
181,0.629059495447,0.6651488978019999,0.25213488680999996,0.65823970795,0,0,0,1,0.39790955218,0,0,0.254346270191,0,0
182,0.65098049314,0.683752876609,0.267239103029,0.634922333706,1,1,0,0,1.07574477411,1,1,0.54592860444,0,0
183,0.699574350308,0.720929657793,0.27962497394499997,0.624851201096,1,1,0,1,0.297956129332,0,1,0.7731113085279999,1,0
184,0.720132755912,0.702448846504,0.255485813342,0.667597212204,0,0,0,0,0.578680221433,1,0,0.475286186871,0,0
185,0.7302844563199999,0.724842984912,0.2907771604,0.6822623273199999,0,1,1,1,0.395355506232,0,1,0.289170162971,1,0
186,0.731992130502,0.7286637141210001,0.266636028624,0.656689076237,1,0,1,1,0.331985222092,0,1,0.263102050451,0,0
187,0.7191018398119999,0.743108407876,0.324996894438,0.61812970064,0,0,1,1,0.423118568286,1,1,0.236987149476,1,0
188,0.7342508712000001,0.735292741586,0.275521799738,0.583861895519,1,1,1,1,0.22371522674400002,1,1,0.282849495424,1,0
189,0.7256737999959999,0.734063494279,0.272827987885,0.6053548968029999,0,1,1,0,0.352269979652,1,1,0.379411208039,0,0
190,0.719053871268,0.724058350513,0.280535225566,0.63518460985,0,1,1,1,0.304791771752,0,1,0.294629319215,0,0
191,0.719951756253,0.7170590241529999,0.287462697473,0.6961929316519999,1,1,1,0,0.307977612781,0,0,0.27116807832,1,0
192,0.658492468871,0.730778607599,0.280693151113,0.674621347308,1,1,1,0,0.527183941719,0,0,1.0050437955,1,0
193,0.677087563495,0.741664097477,0.29895005246399997,0.654127385633,1,0,0,1,0.304045571352,1,1,0.315164319546,0,0
194,0.722286229464,0.7066228707969999,0.301446832422,0.666790974999,1,1,1,0,0.339231697338,0,0,0.48376184012100004,1,0
195,0.67383673853,0.6987668709020001,0.251094939995,0.654275121306,1,1,1,0,0.43849506593099996,0,0,0.519079275642,1,0
196,0.6392449348129999,0.6806774181759999,0.262720446547,0.675817373495,0,1,0,1,0.313917633603,1,1,0.23969786128400003,1,0
197,0.678098043291,0.6944170258769999,0.264503787248,0.663036629108,1,1,1,0,0.269032713582,0,0,0.23486355731699998,0,0
198,0.672170131831,0.7181731100100001,0.257378303845,0.674246920833,0,1,1,0,0.29356374987399997,1,1,0.318009963224,1,0
199,0.66845278203,0.731267802867,0.279544294062,0.676912440971,0,0,1,1,0.248804404031,1,1,0.313187733697,1,0
200,0.6824138331309999,0.716778217149,0.259480598851,0.617708133212,0,1,1,0,0.331928170363,1,1,0.303085653361,1,0
201,0.7004981328759999,0.725167368513,0.26208685279599997,0.63002701597,1,0,1,0,0.28714256261300003,1,1,0.27158796697500004,0,0
202,0.7429290074510001,0.705866076473,0.28982451275800003,0.647258581962,1,1,1,0,0.27165075406399997,0,1,0.274767167062,1,0
203,0.734565982165,0.6755375832989999,0.34826624659,0.6722734909370001,1,0,1,1,0.26682912825800004,0,1,0.301941600159,1,0
204,0.738403984951,0.648142092954,0.370302390161,0.6652392481080001,1,1,1,0,0.26999414087699997,0,1,0.249120754363,0,0
205,0.72005875231,0.631160234734,0.393111098501,0.661578580128,0,0,1,1,0.286476355379,1,1,0.428292767742,0,0
206,0.710867948207,0.645046686242,0.39588847933300003,0.660770445083,0,0,1,1,0.415082424656,1,0,0.287582977817,1,0
207,0.723752710507,0.6305702619910001,0.408241601091,0.655941939868,1,0,1,0,0.295668626651,1,0,0.35211995473200003,0,0
208,0.733892595986,0.6485247784120001,0.413068087732,0.642828795404,0,1,1,0,0.280204589314,1,1,0.26998297202,1,0
209,0.7085155584739999,0.622945447974,0.422048455621,0.624036561782,1,0,0,0,0.320744220192,0,0,0.670514488875,0,0
210,0.713478340288,0.658925067011,0.452980246085,0.65287844414,0,0,1,1,0.358803459206,1,1,0.7566873532009999,1,0
211,0.700806607949,0.707276023436,0.45930074859399994,0.690264514359,0,1,1,0,0.33812296187299995,1,1,1.2692518646700002,0,0
212,0.6888194483230001,0.67605601788,0.503899415977,0.721735483021,0,0,1,1,0.38172919868199995,1,0,0.21417128740400002,1,0
213,0.736297490284,0.7222434636689999,0.496447224455,0.730641690058,1,1,1,1,0.307604814442,1,0,0.294648336459,0,0
214,0.703795451649,0.734597495695,0.49654955820200003,0.7321202894490001,1,1,1,0,0.260126606542,0,1,0.24449262145999998,1,0
215,0.6827179737260001,0.7449306034119999,0.461937628104,0.7229035613950001,1,1,1,0,0.313863298622,0,1,0.30903563559700004,1,0
216,0.7059634481020001,0.7360072169249999,0.450015696035,0.7440445732400001,1,1,0,0,1.42918567259,1,1,0.456620611734,0,0
217,0.725976656268,0.740328916963,0.433735762764,0.7406087974660001,0,0,1,0,0.416770129526,0,0,0.13727461170900002,1,0
218,0.718942963792,0.7270996875769999,0.426512493987,0.740341008405,0,0,0,0,0.28661370213599996,1,1,0.228405844875,1,0
219,0.745269689709,0.724155048459,0.408622103033,0.745407314129,1,0,1,1,0.284466564819,0,0,0.29823233215,1,0
220,0.718558179912,0.693820555376,0.393257066089,0.7287938872349999,1,0,1,1,0.354389647617,0,0,0.344129090255,1,0
221,0.7141412288950001,0.667900958383,0.354452986287,0.740075245984,1,0,1,1,0.304255666611,0,0,0.491347305272,0,0
222,0.6936960621160001,0.6581880362520001,0.385566385115,0.738181198137,0,1,1,1,0.256823341583,0,1,0.24127749991500003,1,0
223,0.6933599030050001,0.621055770438,0.35788804935699997,0.7256220020790001,0,0,1,0,0.555973331184,0,1,0.305940956592,0,0
224,0.672827341577,0.585350719432,0.336626254691,0.737251220978,1,0,1,0,0.321933250683,1,1,0.266479573217,0,0
225,0.671490190325,0.555267692803,0.35760444352799997,0.71637120176,1,1,1,0,0.674482451763,0,1,0.21371879776099997,1,0
226,0.723592900245,0.548669014035,0.34676017301600004,0.7016427749699999,1,1,1,0,0.379151909437,0,1,0.267639323191,1,0
227,0.742472089998,0.5229304297190001,0.329646230639,0.6758025402050001,1,1,1,0,0.443705186848,0,1,0.257479587404,1,0
228,0.744995239403,0.521541274687,0.338587457131,0.6907911826049999,0,0,0,0,0.319003689647,1,0,0.39940346228600004,0,0
229,0.728711644967,0.529748201417,0.37231058651999993,0.6840043555840001,0,1,1,1,0.242154406129,0,1,0.279916613917,1,0
230,0.688736891203,0.487948409925,0.34282510767200003,0.6663501307940001,0,1,1,1,1.3120364358299998,0,1,0.243562889571,0,0
231,0.709695062492,0.49176235524800005,0.33508329621399996,0.701099829318,1,1,1,0,0.334215069323,0,0,0.222726631959,0,0
232,0.742243272654,0.463559553314,0.302778978337,0.677536813282,1,1,0,1,1.78542572816,0,0,0.255786750899,1,0
233,0.697868310176,0.41164359045599996,0.315668487376,0.664924817343,1,0,0,1,0.333137727403,1,0,0.23235328121399998,1,0
234,0.707491743749,0.44038379319300003,0.27254383138300003,0.654194968969,1,1,1,1,0.274956735771,1,0,0.25414583448399997,1,0
235,0.7039706785969999,0.45197296211599997,0.289547378671,0.5881057133100001,0,0,1,1,0.491459899426,1,0,0.238737339572,0,0
236,0.6764505055169999,0.426780479059,0.288724609889,0.614588985041,1,1,0,0,0.900106345631,1,1,0.207481745711,0,0
237,0.705095524825,0.407425806334,0.27224304748399997,0.562667092698,1,1,0,0,0.338094285077,1,0,0.43461343529,0,0
238,0.698105196177,0.380983422896,0.264424999499,0.605293171874,1,0,1,0,0.730714628759,1,1,0.275341004828,1,0
239,0.686439799126,0.375901394737,0.262880109754,0.607820483875,1,1,1,1,0.624769868718,1,1,0.19865351880899998,1,0
240,0.660691674772,0.36417669867200003,0.283241535783,0.526653430686,1,1,1,1,0.29741972233,1,1,0.42048151056,1,0
241,0.6554507925249999,0.379483644969,0.260751106688,0.500642307999,1,0,1,0,0.284652209336,1,1,0.210367536902,1,0
242,0.6666723844219999,0.370626082905,0.271095285932,0.5209753000280001,1,0,0,0,0.35442104115999995,0,1,0.237705276802,0,0
243,0.647858329043,0.34067992807499997,0.255892119425,0.516315610784,0,1,1,0,0.338951268465,1,1,0.294152378831,0,0
244,0.6829326427369999,0.318729814198,0.255696618972,0.517968973132,1,0,1,0,0.272838878973,1,0,0.230621202777,1,0
245,0.672750816074,0.33084192754700004,0.265554786428,0.49103443450499995,0,1,1,0,0.289339205134,1,0,0.113803711261,0,0
246,0.648216542018,0.348441927934,0.273329042259,0.502101353262,1,0,1,1,0.868439918944,0,1,0.247795584558,0,0
247,0.660529767558,0.324094899583,0.330655810304,0.46743819142,0,1,1,1,0.25051142800500004,0,0,0.24296973269900002,0,0
248,0.6689559176100001,0.318994050448,0.34422375196099997,0.451964870466,0,0,1,1,0.245677727759,1,1,0.22745196410399998,0,0
249,0.669389917785,0.315812236566,0.31115465411,0.46760927617,0,0,1,1,0.270225970128,1,0,0.29735452035300003,0,0
250,0.6452974616,0.31502247744399997,0.321821576292,0.45332583291999995,0,0,1,0,0.350655325145,0,1,0.23381126985999998,0,0
