trial,rwrd_prob0,rwrd_prob1,rwrd_prob2,rwrd_prob3,symbol0,symbol1,common,choice1,rt1,final_state,choice2,rt2,reward,slow
1,0.736307678859,0.609455467291,0.409687636778,0.55529730985,0,0,1,1,0.351400391453,1,1,0.754672197557,1,0
2,0.746937346204,0.609286986332,0.421188118222,0.536895239547,0,0,1,1,0.331189620344,1,1,0.390392925838,0,0
3,0.695309151476,0.598126780533,0.382266078738,0.575973763814,0,0,1,1,0.286813101231,1,0,0.383353236005,1,0
4,0.725901646404,0.590403873196,0.351369765374,0.554187120745,1,0,1,0,0.357109479991,1,0,0.253722846134,1,0
5,0.733779508613,0.54003369567,0.348077332131,0.544012341656,0,0,1,1,0.395357022544,1,0,0.283951463239,1,0
6,0.727526249972,0.55348082658,0.318151612924,0.540418687285,0,0,1,1,0.342997801248,1,0,0.250194096332,0,0
7,0.723968517878,0.56091061456,0.318791931726,0.543460729908,1,0,1,1,0.239888577235,0,1,0.421739030689,0,0
8,0.72824681205,0.575197328468,0.322691592488,0.499932642362,1,1,1,0,0.34218851312,0,0,0.22011550392,1,0
9,0.736971760945,0.56940051917,0.332583384381,0.507009463516,0,0,0,0,0.2204240054,1,1,1.35690391296,1,0
10,0.748226008571,0.603881610648,0.31008871333,0.498864405337,1,1,1,0,1.39505304897,0,0,0.489382055236,1,0
11,0.746833028658,0.620374122381,0.333944847404,0.518889787881,1,0,1,1,0.287231178089,0,0,0.237026637382,1,0
12,0.744520771616,0.645666816486,0.318831613566,0.54889196398,1,1,0,0,0.240063958213,1,0,0.421904148409,0,0
13,0.721344339731,0.624938608723,0.361366845177,0.534853941914,0,0,1,0,0.198359206807,0,0,0.284135900033,1,0
14,0.716399642477,0.646562983978,0.374063520062,0.555673708769,0,1,1,1,0.233830839764,0,0,0.245024432593,0,0
15,0.721375982361,0.626003404551,0.355139899609,0.570275851579,0,1,1,0,0.22405085988,1,1,0.187217835853,1,0
16,0.747459731122,0.650177838564,0.332246962274,0.541978194129,1,0,1,0,0.307512282706,1,1,0.217417172484,0,0
17,0.749049551418,0.672726521623,0.326615807589,0.572977164113,1,0,0,0,0.321802662893,0,0,0.759649576128,1,0
18,0.719155726753,0.67585469909,0.324423277858,0.599281552583,1,0,0,1,0.330882326306,1,1,0.459427527509,0,0
19,0.723850749386,0.692216570717,0.322896692899,0.612363508667,1,0,0,1,0.257222013603,1,0,1.0017299628,1,0
20,0.743937643152,0.660721385734,0.286363524062,0.602531429178,1,1,0,0,0.202426475827,1,0,0.216217578668,0,0
21,0.726180953654,0.665339391351,0.307159050555,0.638710471813,1,1,0,1,0.288594984044,0,0,1.19042419859,1,0
22,0.711388426892,0.686677652167,0.303373645943,0.640215221308,0,1,1,1,0.844527328643,0,0,0.306612436413,0,0
23,0.710822797591,0.700090514345,0.293060239399,0.644855877648,1,1,1,1,0.275001901721,1,0,0.358169916095,0,0
24,0.730634739242,0.69856264413,0.302904272657,0.63436880723,1,1,1,1,0.257307440138,1,1,0.353759129772,0,0
25,0.740343780877,0.688989158776,0.298643846301,0.658355305657,0,1,0,1,0.314214492445,1,0,1.07202724714,0,0
26,0.721496666934,0.719031435733,0.322308291824,0.639750113985,0,0,1,0,0.568746928569,0,0,0.241364675313,0,0
27,0.734680805561,0.688869975859,0.296953049008,0.65266538202,0,1,1,0,0.343082322201,1,1,0.67429095976,1,0
28,0.721652871679,0.688706140649,0.277218872066,0.625506537315,0,0,1,0,0.458819882226,0,1,0.227419019871,0,0
29,0.723121918127,0.693144383199,0.316520980668,0.601910538459,1,1,1,1,0.315788695202,1,0,0.20440154939,0,0
30,0.704666221856,0.709146938268,0.320629114595,0.553705218869,0,1,1,0,0.306061842774,1,1,0.213237611341,1,0
31,0.708301178103,0.729807013624,0.327874615965,0.555474099258,0,1,1,0,0.229566455807,1,1,0.20074209397,0,0
32,0.688160990777,0.707828586537,0.320795775042,0.538868843774,1,1,1,1,0.371728888175,1,0,0.212281618987,0,0
33,0.699912364175,0.746909842353,0.315608252987,0.524706857681,0,1,1,1,0.372658014941,0,0,0.245195587523,1,0
34,0.669035443382,0.748039622571,0.33482278447,0.556487305689,0,1,1,1,0.968211367585,0,0,0.22502073782,1,0
35,0.675736590124,0.742617570785,0.387904876943,0.609621129845,1,0,1,1,0.292071813832,0,0,0.236582902377,0,0
36,0.656315355597,0.743510433341,0.391484760038,0.588103001617,0,1,1,0,0.303596547681,1,0,0.18146226079,1,0
37,0.650246103791,0.749245981914,0.414924490195,0.531964728206,1,1,1,1,0.283183530006,1,0,0.193040725817,0,0
38,0.614427096888,0.727217172298,0.39233561195,0.477929209741,1,1,1,0,0.339991270193,0,1,0.215193063969,0,0
39,0.571382956056,0.731524970107,0.410962959132,0.485766785045,0,0,1,0,0.260915881125,0,0,0.237413320744,1,0
40,0.583163591857,0.719456954792,0.392834451855,0.488523344092,0,0,1,0,0.240450339714,0,0,0.206272179204,1,0
41,0.588215915386,0.734344771589,0.369106851735,0.464376249908,1,1,0,0,0.262661842532,1,1,0.548539779787,1,0
42,0.557436384959,0.738939138706,0.399210304207,0.507043507555,0,0,1,0,0.479686294444,0,0,0.216290025199,1,0
43,0.563947504006,0.701418671206,0.405677705147,0.49321139005,0,0,0,0,0.68864895671,1,1,0.203930948796,0,0
44,0.559935041231,0.691503086482,0.408358969777,0.496305843178,0,1,0,1,0.622967723863,1,0,0.418288462769,0,0
45,0.553255754918,0.678429367436,0.419152824122,0.450318378178,0,0,0,0,0.248049075281,1,0,0.533893807874,0,0
46,0.547910227311,0.681800760821,0.439655023856,0.409578806377,1,0,1,1,1.21173857186,0,0,0.223297415953,0,0
47,0.544648573165,0.657596622723,0.401166805525,0.384565847172,1,0,1,0,0.271715545939,1,1,0.205462589215,1,0
48,0.607281957617,0.614593279231,0.387226306803,0.38863200393,1,1,1,1,0.256519282248,1,1,0.217015999816,1,0
49,0.61356310127,0.633134905651,0.355201310917,0.42225907239,0,0,1,1,0.249360055639,1,1,0.212610345123,0,0
50,0.623052689429,0.668068951546,0.352054084573,0.40390095765,1,1,1,0,0.76493092827,0,1,0.210945584203,1,0
51,0.632254690073,0.673753568914,0.360208603966,0.376493271864,1,1,0,0,0.264585901663,1,1,0.227816872073,0,0
52,0.635538249861,0.616169448218,0.364580559626,0.377036136125,0,0,1,0,0.29487609832,0,1,0.223365636437,0,0
53,0.632624822255,0.612534533525,0.312890099583,0.424457430765,0,1,1,0,0.303704311897,1,0,0.22157077362,0,0
54,0.61965638817,0.587253868706,0.300330797624,0.428583275605,0,0,0,0,0.595289828386,1,1,1.20125797365,0,0
55,0.685226926483,0.6068494811,0.274046655213,0.45708019605,0,0,0,0,0.407357186756,1,0,0.213244855995,0,0
56,0.641799268004,0.616035924328,0.250039945066,0.459231422888,0,0,1,1,0.346953683725,1,1,0.190156146424,1,0
57,0.625889225263,0.617285421658,0.286555211698,0.416221816784,0,1,0,0,0.206488009495,0,0,0.351021858326,1,0
58,0.621027742086,0.603456752999,0.281538261589,0.44168445971,1,1,1,0,0.255398474035,0,0,0.242615585422,0,0
59,0.618716642018,0.580325515298,0.28879650958,0.487846835399,0,0,0,1,0.701655825848,0,1,0.600921942485,1,0
60,0.645150614552,0.592525906439,0.301137956051,0.453599509556,1,1,1,1,0.286808573323,1,1,0.220655230579,1,0
61,0.671337091661,0.583000608628,0.315251627227,0.421565170099,0,1,0,1,0.269067625215,1,1,0.264215518771,0,0
62,0.677998164981,0.533824800159,0.281585610745,0.395281917245,1,1,1,0,0.272564679659,0,1,0.203730815253,0,0
63,0.647316510578,0.52491482397,0.266357221641,0.438061078303,1,0,1,0,0.305439104464,1,0,0.18864382508,0,0
64,0.627114899022,0.526911340755,0.261884681658,0.424324898606,0,1,0,1,0.263635040938,1,0,0.386815274627,0,0
65,0.651975808483,0.523511608673,0.285821287177,0.426759595381,0,1,1,1,0.291254375469,0,0,0.243750279221,0,0
66,0.631249627825,0.534145009423,0.265837211102,0.425186954223,1,0,0,1,0.238808520195,1,0,0.767291477752,1,0
67,0.625424861938,0.533092073453,0.272712711201,0.443456300246,0,0,1,1,0.311907070419,1,0,0.347074427944,0,0
68,0.576640696285,0.513285640879,0.306369078337,0.418334943565,0,1,1,1,0.39548712444,0,1,0.297358901324,0,0
69,0.593877643894,0.540614889028,0.288930395005,0.375929183471,0,1,1,0,0.364494196429,1,0,0.20500768537,0,0
70,0.594846386799,0.602490362408,0.27842610758,0.360311198514,0,1,0,1,0.677348505247,1,1,0.251365013396,0,0
71,0.55161702639,0.600076319859,0.303566077276,0.37392529742,1,0,0,1,0.534416932203,1,0,0.609672577901,0,0
72,0.568478708566,0.602050077966,0.266517728396,0.334761193176,0,1,0,1,0.319553499952,1,1,0.280064706827,0,0
73,0.540436458342,0.609676201682,0.265012373362,0.283136381583,0,0,1,0,0.307205592389,0,0,0.297073643107,1,0
74,0.592563976189,0.616748706609,0.258841790372,0.294199914042,0,1,1,1,0.230740391477,0,0,0.209882733214,1,0
75,0.573675795436,0.640867248357,0.25043805292,0.288165459107,0,0,1,0,0.306248694453,0,0,0.221447916377,1,0
76,0.582806454816,0.629965063654,0.259733369667,0.29202895582,0,0,1,0,0.259202520656,0,0,0.251763167459,0,0
77,0.605968221484,0.626663856055,0.251992907745,0.275310800622,1,0,0,0,0.265453448877,0,1,0.212650492576,1,0
78,0.617097707444,0.626561394323,0.276131264913,0.286029258205,0,1,1,1,0.634268175325,0,1,0.213641198894,1,0
79,0.652414156247,0.610131421458,0.313240748339,0.28592238725,1,1,1,0,0.347295088005,0,1,0.24651109579,1,0
80,0.669254147062,0.591783926225,0.340939649028,0.303259729807,0,0,1,0,0.222878735373,0,1,0.194032639577,1,0
81,0.668929756421,0.563664508826,0.34650066737,0.328393120701,1,0,0,1,0.25311972876,1,1,0.440235233888,0,0
82,0.645211801421,0.584639561235,0.368642484148,0.340823014993,1,0,0,1,0.3153250374,1,0,0.195879422408,0,0
83,0.620131987222,0.594803734466,0.36690953602,0.31891328856,0,0,0,0,0.262902123528,1,0,1.27406070053,1,0
84,0.633611402209,0.57011278015,0.367104583239,0.253723469745,0,0,0,1,0.269565996979,0,1,0.62470794992,0,0
85,0.667021883937,0.540907833332,0.336999075885,0.270895872839,0,1,0,0,0.365344537592,0,1,0.331223428725,0,0
86,0.64626457378,0.50902274935,0.31051014905,0.30577051949,1,0,1,1,0.414312355636,0,0,0.246828351226,1,0
87,0.679064550109,0.524182270158,0.322253898728,0.321982361593,1,0,1,1,0.226037706005,0,0,0.197125200888,1,0
88,0.690532334838,0.534740049738,0.318126156457,0.336331587357,1,1,1,0,0.192086242766,0,0,0.237882110174,1,0
89,0.655098419409,0.578510592807,0.285349205746,0.317998352378,1,0,0,1,0.243631648026,1,1,0.188098966792,0,0
90,0.667880169162,0.585265638956,0.259518163675,0.352525704178,0,1,1,1,0.204448639635,0,0,0.180933099251,0,0
91,0.656788620355,0.619945597912,0.263002797254,0.360504338256,0,0,0,0,0.314593629294,1,0,0.237783099914,0,0
92,0.685993966842,0.609274694115,0.29419313125,0.367194869165,1,0,0,1,0.240826457956,1,0,0.566649601483,0,0
93,0.672486980685,0.642864488249,0.317800183375,0.332063292236,0,1,1,1,0.844543629112,0,1,0.282567432628,1,0
94,0.697830791538,0.602656646362,0.335417484097,0.366392850891,0,0,1,0,1.09895441543,0,1,0.219811832209,0,0
95,0.723574673339,0.604733999138,0.352625163425,0.405397708888,0,1,1,0,0.228203555434,1,1,0.183394470156,0,0
96,0.694579269349,0.582330859362,0.278689427815,0.471770121786,0,1,0,0,0.186386511905,0,0,1.48550767511,1,0
97,0.713031017589,0.567153750838,0.266142670521,0.476241599309,0,1,1,1,0.211703556038,0,0,0.108224250993,1,0
98,0.707226633755,0.554899492341,0.284571248119,0.441280160001,0,1,1,1,0.23917528076,0,0,0.223666591402,1,0
99,0.720895962405,0.531061244901,0.27959445186,0.413833809435,0,0,0,1,1.20271686567,0,0,0.184913734293,1,0
100,0.695785180287,0.52938642322,0.261396770059,0.368819356654,1,1,1,0,0.385319857473,0,0,0.172502134154,0,0
101,0.668513671645,0.53201121325,0.25067562458,0.342887924915,1,0,1,0,0.130159551411,1,0,0.189291617815,0,0
102,0.681382564352,0.528854063104,0.259871292608,0.327583859179,0,1,1,1,0.189635436979,0,0,0.360782217274,0,0
103,0.694162533338,0.523393299624,0.255407445254,0.31699986199,0,0,1,1,0.28654806767,1,1,0.268380288748,1,0
104,0.680426231822,0.560088751004,0.263475531855,0.265584921827,1,1,1,1,0.196754214275,1,1,0.23725152349,0,0
105,0.601064441711,0.618919272687,0.287707400882,0.280769708177,1,1,1,1,0.22700516906,1,1,0.238152879086,0,0
106,0.553891182645,0.626785699694,0.342755530281,0.339755650394,0,1,0,0,0.225144802505,0,1,0.236289192064,1,0
107,0.576786186236,0.644852512662,0.36981092515,0.315746456582,1,1,0,0,0.19939730523,1,0,0.173139965491,0,0
108,0.594657132996,0.647900069073,0.356016367102,0.339163898514,1,0,1,1,0.232174229078,0,1,0.195369579943,1,0
109,0.63823233043,0.617632528586,0.342900351779,0.34356193783,0,1,0,1,0.238318902387,1,1,0.622832792198,1,0
110,0.595456815043,0.608740783374,0.351155657195,0.331301987817,0,0,1,0,0.0553784304939,0,1,0.218453157884,0,0
111,0.588170230704,0.632422216974,0.358448684018,0.293207980018,1,1,1,1,0.288144306246,1,1,0.26466106494,0,0
112,0.564986495056,0.622257672969,0.368218773041,0.302424553421,1,1,1,1,0.337045413108,1,0,0.241578090719,0,0
113,0.500340314227,0.627024367427,0.362423378983,0.296888124762,0,1,0,1,0.212617287916,1,1,0.357100726035,1,0
114,0.558833008518,0.629434357545,0.368376513917,0.297164226536,0,0,0,1,0.210842649756,0,0,0.267359698236,1,0
115,0.53319471946,0.636384499265,0.34149298036,0.278504157674,1,1,1,0,0.233066830718,0,0,0.228210196366,0,0
116,0.529296199598,0.657329173079,0.371776786508,0.272626342283,0,0,1,1,0.244606053873,1,1,0.162400370926,0,0
117,0.487280293607,0.629940013753,0.384861694691,0.263981309569,1,0,1,1,0.237414830046,0,0,0.213910156642,1,0
118,0.491969126441,0.625360639956,0.357898711388,0.266274320917,0,0,0,0,0.830268341952,1,1,0.201683295158,0,0
119,0.536168787009,0.616438160355,0.385117063726,0.250505944192,0,1,1,1,0.202036170138,0,0,0.215844479031,0,0
120,0.52586169548,0.596862474889,0.39042154964,0.2620295922,0,0,1,1,0.296175909838,1,0,0.248733393142,1,0
121,0.520843667946,0.581120908881,0.40805599357,0.259134167507,1,0,0,0,0.227764952059,0,1,0.27357862924,0,0
122,0.470705896921,0.566544975383,0.459121159818,0.281222737512,0,1,0,0,0.0259799298965,0,0,0.615772273988,0,0
123,0.467475418068,0.577293293859,0.455600107876,0.314925192676,0,1,1,0,0.216251085189,1,0,0.248718601975,0,0
124,0.434805325915,0.566623476833,0.469472187248,0.317306079935,1,1,0,1,0.0624830203442,0,0,0.926818438125,0,0
125,0.463491663551,0.568162407449,0.48723603713,0.343911797004,1,0,1,0,0.292861481025,1,1,0.333384146526,0,0
126,0.498048464161,0.549685240828,0.471997686013,0.377009837801,1,0,0,1,0.21115326426,1,0,0.278242676562,1,0
127,0.45786127101,0.547090975776,0.465285805364,0.371286425473,1,1,1,0,0.849300045762,0,1,0.22076027805,0,0
128,0.453475934544,0.543324067902,0.388860963618,0.338506190823,0,1,1,0,0.527744002937,1,0,0.264402672311,0,0
129,0.448609570203,0.532345332642,0.404803885187,0.328270118787,1,0,0,1,0.240730164442,1,0,1.08125542594,0,0
130,0.424049157727,0.514313529162,0.39989633267,0.306788154784,1,1,1,1,0.908625906639,1,1,0.312063736043,1,0
131,0.41294191125,0.552973710879,0.426445697902,0.296557480653,1,0,1,0,0.480482602569,1,1,0.254390863526,0,0
132,0.409509649655,0.493132436061,0.397592361657,0.30871390228,1,0,1,1,1.15344718708,0,1,0.279639687176,0,0
133,0.408456543816,0.513166676959,0.42395720408,0.325203435377,0,0,1,0,1.6187087734,0,0,0.227746236705,0,0
134,0.405052406167,0.477213049406,0.441898830527,0.327259206045,1,1,1,1,0.638605005814,1,0,0.324771763239,0,0
135,0.391298570752,0.502746331059,0.390814652741,0.351106741889,0,0,1,0,0.263847550765,0,1,0.243024908325,0,0
136,0.384251723234,0.477187867391,0.393523694027,0.352655531784,0,1,0,0,0.222101746323,0,0,0.267889765358,0,0
137,0.384977752463,0.452833901756,0.36471698762,0.331197199912,0,1,1,0,0.284276567048,1,1,0.202105899924,0,0
138,0.396610729597,0.498479128857,0.362401371372,0.357144669596,1,0,1,0,1.031815498,1,0,0.29129361734,0,0
139,0.406872567191,0.489436608523,0.340239647831,0.355127581475,1,1,1,0,0.243719187584,0,1,0.188181978443,0,0
140,0.402379356938,0.545028507079,0.374489435295,0.378250616174,1,0,1,0,0.212538804173,1,0,0.207737410302,0,0
141,0.396822960092,0.537771461632,0.398930996239,0.344789287271,0,1,1,0,1.1813780417,1,1,0.224934103842,1,0
142,0.398557002618,0.504321101711,0.418930029957,0.361831775436,1,0,1,0,0.230639268193,1,1,0.153806702995,0,0
143,0.388420928895,0.542250157236,0.425326256233,0.369912477069,0,1,1,1,0.0928067235218,0,1,0.207902528022,1,0
144,0.365910309917,0.520864301055,0.431625735964,0.408709466273,0,1,1,1,0.0429327201136,0,1,0.227411473357,0,0
145,0.349434481643,0.5389028785,0.466073793701,0.342004812464,0,0,1,1,0.286426116008,1,1,0.204220734922,1,0
146,0.352988597464,0.534991391687,0.468001325857,0.331599791024,0,1,1,0,0.369839241147,1,1,0.22651464567,1,0
147,0.4153516092,0.553338094186,0.464036461952,0.317043287991,1,1,0,1,0.189550916026,0,0,0.344627244484,0,0
148,0.461495850942,0.571274690369,0.454651047683,0.293727652867,1,0,1,0,1.20908159532,1,1,0.196669391462,1,0
149,0.434505381161,0.560165381991,0.472324826466,0.291632548316,1,1,1,1,0.263629909309,1,1,0.234852033997,0,0
150,0.4441117687,0.56212350973,0.464851524769,0.313158762071,0,1,1,1,0.541824590043,0,0,0.222489033406,0,0
151,0.434487118412,0.57758933015,0.491595320928,0.342534108801,0,1,1,0,0.230893434775,1,1,0.220640741272,1,0
152,0.391403022705,0.582907809976,0.506515214025,0.347188012071,1,0,1,0,0.218350827159,1,1,0.229499744626,0,0
153,0.407187028776,0.561699278257,0.475951006123,0.368776806068,0,1,1,1,0.235231170845,0,1,0.214368380953,0,0
154,0.407174777057,0.574933943685,0.46807044184,0.334186792694,1,1,1,1,0.436060804373,1,1,0.25798058916,1,0
155,0.406475588624,0.575001873224,0.4410112957,0.308040627812,0,1,1,0,0.295667274815,1,1,0.456191582438,1,0
156,0.42625514182,0.518067123705,0.440256689796,0.307604753237,0,1,1,0,1.38465999032,1,1,0.284354145209,0,0
157,0.423300739315,0.520953522817,0.3807838717,0.294932830612,1,0,1,1,0.394089208244,0,0,0.373324221169,0,0
158,0.401806335911,0.500963363413,0.398032000467,0.306171741283,1,0,1,0,0.253674246586,1,1,0.272853258343,0,0
159,0.422435350194,0.518792203828,0.395315693235,0.298950940017,1,1,0,0,0.793285896954,1,0,0.420626674571,1,0
160,0.425328909153,0.527972079234,0.375510758695,0.290484726202,0,0,0,1,0.861116075041,0,1,0.853871421896,1,0
161,0.43620111378,0.518589285193,0.369886007872,0.255486408864,0,0,1,0,0.307820180465,0,1,0.241650537251,1,0
162,0.434701121789,0.546885309278,0.34642924639,0.278227737153,1,1,1,0,0.247391019287,0,1,0.303876372409,1,0
163,0.424136507362,0.481936714094,0.35470832303,0.269135868059,0,0,1,0,0.168208469724,0,1,0.222056769102,1,0
164,0.435139887045,0.497844560814,0.416572363847,0.274905552917,1,0,1,1,0.198389091001,0,1,0.214920182034,1,0
165,0.424364866217,0.512906662963,0.447282979474,0.280118093756,1,1,1,0,0.255231545151,0,1,0.215731281325,0,0
166,0.44554973456,0.443359570303,0.432170036376,0.305969047344,0,0,1,1,0.213480005361,1,0,0.200583617182,0,0
167,0.438475803646,0.423544786996,0.442014934406,0.355507508691,0,1,1,1,0.235639588165,0,1,0.257403733653,1,0
168,0.469250532747,0.385554249203,0.397576904507,0.378605931102,0,0,0,1,0.231124358093,0,1,0.588962831307,0,0
169,0.46014830357,0.36577049019,0.422209711869,0.369104797863,0,1,0,0,0.821803870335,0,1,0.32122761855,1,0
170,0.422444788465,0.346012800362,0.431715677286,0.33740022874,0,1,0,1,0.284290754495,1,0,0.290097343989,0,0
171,0.415288690678,0.379330632318,0.41720601951,0.291288614416,0,1,1,1,0.322490603081,0,1,0.203027782038,0,0
172,0.374393890883,0.3872274138,0.41162995535,0.255889985834,0,1,1,0,0.189968691025,1,0,0.369301325651,0,0
173,0.358537972267,0.377150406014,0.435208532747,0.282487342798,1,1,1,1,0.209584193133,1,1,0.258159894325,0,0
174,0.373874899837,0.352669764868,0.409302893917,0.271632578404,1,1,1,0,0.277166241848,0,1,0.243008305994,0,0
175,0.377040447082,0.40345411979,0.409038068885,0.267998913809,0,0,1,0,0.038043484823,0,1,0.259786620816,0,0
176,0.407456374609,0.41511724753,0.437142043122,0.264405677142,1,0,1,0,0.212227585948,1,0,0.284661439247,0,0
177,0.422722812107,0.375342419985,0.412626944118,0.277141876798,1,1,1,0,0.322313109079,0,0,0.296239300554,1,0
178,0.44538272455,0.369572809825,0.407788939996,0.261026916552,1,1,1,0,0.429943600375,0,0,0.659871081397,0,0
179,0.458294092765,0.368464655623,0.44604622565,0.250451840775,0,1,1,0,0.241742604719,1,1,0.23954445621,0,0
180,0.493141005006,0.38773617343,0.438627136023,0.329357879179,0,1,0,1,0.298644827257,1,0,0.547152730571,1,0
181,0.480631384574,0.420021858906,0.419233019738,0.335621115966,1,0,1,0,0.734344002695,1,0,0.246997091272,1,0
182,0.50165286772,0.447107826628,0.383609003134,0.352450733703,0,0,1,1,0.258012284517,1,0,0.226570791731,1,0
183,0.526653660727,0.424052281957,0.327852482222,0.34198704803,1,1,1,1,0.2295519665,1,0,0.259442499791,1,0
184,0.539759581235,0.398271466579,0.343328487528,0.328969984144,0,1,0,0,0.243815179238,0,1,0.212293391548,1,0
185,0.558999579073,0.397206987681,0.355029534908,0.338238424573,1,1,1,1,0.225993634364,1,0,0.213106302002,1,0
186,0.571125844566,0.366194368853,0.347575353375,0.362396872347,1,0,1,0,0.3174742845,1,0,0.206043670769,1,0
187,0.576220720617,0.34671520013,0.364015044538,0.348030000732,1,0,1,0,0.32099639337,1,0,0.222921599571,0,0
188,0.569302142197,0.33709203228,0.333546994954,0.361794786708,1,0,1,1,0.273922448403,0,1,0.261087639777,1,0
189,0.585806120611,0.319447523954,0.3202949706,0.347833001519,0,1,1,1,0.250803250918,0,1,0.283290388639,0,0
190,0.564944354613,0.285787207217,0.325489251882,0.342865940127,0,1,1,0,0.225026171309,1,0,0.292183502234,1,0
191,0.577489187749,0.294373174246,0.312557660272,0.36040799512,0,0,1,1,0.22058399149,1,0,0.269086944289,0,0
192,0.567464634095,0.258278631489,0.28526750906,0.343180778054,1,0,0,1,0.218811164494,1,0,0.291261620122,1,0
193,0.52272279139,0.250601946582,0.270488884667,0.353905042477,0,0,0,0,0.963682553788,1,0,0.252472237885,1,0
194,0.551197772397,0.274276707168,0.250732043862,0.35432689673,1,0,0,0,0.276841741759,0,1,0.266652438972,1,0
195,0.551237280349,0.320523028017,0.260415340146,0.340405167846,0,0,1,1,0.696429110465,1,0,0.203758284562,0,0
196,0.564534399317,0.310060269426,0.26476264766,0.341788791234,0,1,1,1,0.190773451244,0,1,0.193928799549,1,0
197,0.55461049702,0.300151846438,0.266547331581,0.353751394619,1,0,1,1,0.148923806776,0,1,0.226728362938,1,0
198,0.55876673564,0.304575018363,0.26346451988,0.325230122753,1,1,1,0,0.579073577905,0,1,0.259730474754,0,0
199,0.531665765546,0.306731695932,0.290631145896,0.308824686774,0,0,0,1,0.28143334255,0,1,0.911291637135,1,0
200,0.489383902056,0.306088447915,0.300075265819,0.290768751854,0,0,1,0,1.26660504687,0,1,0.21685842861,0,0
201,0.478469555101,0.304763683999,0.320039894338,0.32535200725,1,1,1,1,0.233229231692,1,0,0.388423285764,1,0
202,0.473550740331,0.283760078688,0.348046825924,0.334434357574,0,1,0,0,0.196826057086,0,1,0.258632306082,0,0
203,0.473558107549,0.335666498892,0.405403861128,0.343900234746,0,1,1,0,0.296339820115,1,0,0.339508293317,0,0
204,0.479002098941,0.38772435618,0.423062469257,0.341178553484,0,0,0,0,0.211964665412,1,0,0.300469574268,1,0
205,0.435915192445,0.358650789708,0.450029162034,0.342558875202,1,1,0,0,0.242177585767,1,0,0.250636322035,0,0
206,0.454347474996,0.376604084413,0.441880482882,0.355809477939,0,0,1,0,0.392315173805,0,1,0.195561865112,1,0
207,0.440345815545,0.402812109233,0.478362580543,0.362507950801,0,1,1,1,0.422588164411,0,1,0.244499798961,1,0
208,0.447375628466,0.406123288532,0.488621801282,0.350762371486,1,1,1,0,0.338213009707,0,1,0.293393359309,0,0
209,0.404783695988,0.392843420646,0.506058203168,0.33945820785,0,0,1,1,0.219157700402,1,0,0.243625007094,1,0
210,0.328391340289,0.392268511841,0.48394881722,0.370430131023,0,0,0,0,0.201338268552,1,0,0.215142955118,1,0
211,0.267369639233,0.433888164752,0.511021544388,0.357955729289,1,0,0,1,0.228840783051,1,0,0.186663921749,0,0
212,0.265640889196,0.394443153052,0.522431620865,0.358249784689,0,1,0,1,0.651074865038,1,0,0.259735002663,1,0
213,0.282784549604,0.430887062529,0.497858858012,0.384724490743,1,1,1,0,0.262740024415,0,1,0.188585867855,1,0
214,0.267917662559,0.425053518713,0.507610401743,0.358589166724,1,1,1,0,0.508959221054,0,1,0.168200319489,0,0
215,0.287675759495,0.443173279199,0.531439358785,0.406032797451,1,1,0,1,0.219234976703,0,0,0.206349455503,0,0
216,0.310748949646,0.435108584633,0.514178209534,0.384629333274,0,0,1,1,0.00138010642331,1,0,0.151258094391,0,0
217,0.311030905268,0.448467863136,0.503359692284,0.430115947952,0,0,0,0,0.242157964832,1,0,0.359928857506,0,0
218,0.316968426426,0.427187467711,0.528302991366,0.396042805535,0,1,1,0,0.0643503296924,1,1,0.190118111996,1,0
219,0.289671481506,0.450747771133,0.571004844787,0.398043876832,0,0,0,1,0.222468506889,0,0,0.22828385034,0,0
220,0.299578666119,0.472299572091,0.586457507806,0.379140724243,0,0,0,1,0.311302443743,0,1,0.250524029911,1,0
221,0.299827331467,0.443355526949,0.600846381466,0.381672759696,0,1,0,1,0.20559238925,1,1,0.211382678276,0,0
222,0.287199382312,0.451572713573,0.636270624823,0.396094642944,0,0,1,0,0.891801709014,0,1,0.191249485328,1,0
223,0.292559199884,0.484664480772,0.604358495118,0.380102371431,1,1,1,1,0.151492338176,1,0,0.0506669910665,1,0
224,0.309598183104,0.447591533156,0.608198952783,0.389823804671,1,0,1,0,0.272287269816,1,0,0.203454914712,1,0
225,0.285389237774,0.450015597954,0.660194057522,0.425964626983,0,0,0,0,0.854501706719,1,0,0.2392193524,1,0
226,0.278308878565,0.412907904322,0.706276910267,0.408807330592,1,1,1,0,0.29029596823,0,1,0.274775808171,0,0
227,0.299107934001,0.464076958903,0.683221589616,0.3861118452,0,0,0,1,0.283305481667,0,1,0.265176039034,0,0
228,0.293412421127,0.46607220296,0.672082060252,0.39723668301,1,0,0,0,0.260230355821,0,0,0.263343443649,0,0
229,0.299230544223,0.472503165801,0.683257483383,0.421993278298,1,0,1,0,0.0476969851379,1,0,0.296158703786,1,0
230,0.279600796152,0.487803753433,0.6552331834,0.413200139578,1,1,0,1,0.320563827206,0,1,0.5584136383,1,0
231,0.305569950082,0.508610224888,0.636077296885,0.404378922267,0,0,1,0,0.361580940284,0,1,0.25813001013,0,0
232,0.283610377395,0.464507828835,0.606319841829,0.3915949788,1,0,0,0,0.463884196634,0,1,0.283120743012,1,0
233,0.275081099806,0.457688017109,0.602469731928,0.406316647301,0,1,0,0,0.0461396865721,0,1,0.203899253439,0,0
234,0.255731173764,0.434729189611,0.612552941166,0.362909378468,1,0,1,0,0.0575889552847,1,0,0.249985208833,0,0
235,0.271834303942,0.445893263722,0.598584409708,0.383248528121,1,1,1,1,0.423710180065,1,0,0.2669651665,1,0
236,0.265922907939,0.458020474888,0.583208632368,0.352718942739,0,0,1,1,1.11001730265,1,0,0.265552760998,1,0
237,0.28775608397,0.460036710292,0.583126701181,0.368182956067,0,0,0,1,0.284555184335,0,1,0.253102522709,0,0
238,0.325242904164,0.458469309918,0.587096852493,0.377722034641,0,0,1,1,0.290818488838,1,0,0.331296780838,1,0
239,0.345987342116,0.474546235576,0.583538974708,0.361260239118,1,1,1,1,0.281043942443,1,0,0.254933608791,0,0
240,0.368217274833,0.451440238131,0.543880230206,0.374564223493,0,1,0,1,0.300639521756,1,0,0.229132078479,1,0
241,0.342332054134,0.453211365989,0.546343559964,0.382920824312,0,0,0,0,0.256159464476,1,0,0.21939345349,0,0
242,0.34126308716,0.450046990883,0.524875317358,0.339234350908,1,0,1,1,0.304978465269,0,1,0.284225854477,0,0
243,0.336662863351,0.392417713692,0.504161408943,0.325120708305,0,1,0,0,0.244679104126,0,0,0.301138195381,1,0
244,0.342739482807,0.41048913463,0.493675867622,0.278397738926,1,1,1,0,0.450908419132,0,0,0.25149360599,1,0
245,0.345837317848,0.386502024562,0.519534816328,0.267556771164,1,1,1,0,0.625186398888,0,0,0.228454099689,1,0
246,0.400932790805,0.391696929858,0.50708995188,0.250428835929,0,0,1,0,0.212888962408,0,0,0.231990094144,0,0
247,0.378560310701,0.394051724312,0.545121203599,0.273937866475,1,0,1,0,1.01902174241,1,1,0.227832870682,0,0
248,0.389224827412,0.382567902066,0.550009620988,0.251502249533,1,1,1,0,0.260189906508,0,0,0.26339868413,0,0
249,0.344262565248,0.379860321361,0.497605628481,0.283060331236,0,0,1,1,0.527766340617,1,0,0.181699221321,0,0
250,0.382461648661,0.377127925703,0.512279764723,0.278215946815,1,1,1,0,0.222066126779,0,1,0.185255138572,0,0
