trial,rwrd_prob0,rwrd_prob1,rwrd_prob2,rwrd_prob3,symbol0,symbol1,common,choice1,rt1,final_state,choice2,rt2,reward,slow
1,0.553726984441,0.411178013208,0.746839051409,0.342582414862,1,0,1,0,0.750448791305,1,0,0.740425508794,1,0
2,0.586807457684,0.406070185046,0.736830489846,0.311757839154,1,1,0,1,0.225923670915,0,0,0.717039459525,1,0
3,0.582781568559,0.38673557736,0.745114424983,0.324890335052,0,1,1,0,0.1999075099,1,0,0.221640872172,1,0
4,0.579893509962,0.400700832321,0.747120604936,0.334007953747,1,1,0,1,0.202970791663,0,0,0.360770553616,0,0
5,0.599256070362,0.396688705155,0.741788744637,0.362779866656,1,0,1,0,0.230140965899,1,0,0.217214387765,1,0
6,0.595471110245,0.382048589535,0.729082984726,0.374170546855,1,0,0,0,0.182568936669,0,1,0.313703537233,1,0
7,0.603192127208,0.428834901816,0.749168779857,0.394775561503,1,1,1,1,0.0177152953083,1,0,0.186091650323,1,0
8,0.580940708887,0.395911378494,0.747171193181,0.383716035863,0,0,1,1,0.186056332629,1,0,0.247791964892,0,0
9,0.529016901242,0.425694087943,0.721560556234,0.359596231032,1,1,1,0,0.237214768109,0,1,0.309666754911,0,0
10,0.527570146212,0.424926842679,0.718375168134,0.395424978231,0,1,0,0,0.0749797677909,0,0,0.416737327211,0,0
11,0.522850495101,0.465788784637,0.718807321018,0.394499193527,0,0,1,1,0.112772417906,1,0,0.243891321718,0,0
12,0.52212841982,0.47927306173,0.694091753478,0.400426960773,1,1,0,1,0.230545157295,0,1,0.508298299891,1,0
13,0.54870259697,0.515135489795,0.737746613147,0.398561377687,0,0,1,0,0.431053671727,0,1,0.228960388941,0,0
14,0.559324907365,0.468529713053,0.719394100231,0.387816201718,0,1,1,0,0.196950483083,1,0,0.317391670518,0,0
15,0.563666076219,0.477735762979,0.709413308776,0.37251184521,1,0,1,0,0.0267934521594,1,1,0.333785721811,0,0
16,0.611675143247,0.482397371369,0.684704605816,0.373020183555,0,1,1,0,0.267178662558,1,0,0.238275808254,0,0
17,0.651488972541,0.495535088882,0.659660660756,0.38112301253,0,0,1,0,0.216971691811,0,1,0.476099127412,0,0
18,0.647829227615,0.526020189968,0.689097431026,0.382511761223,1,0,1,1,0.230872977949,0,0,0.273944868777,1,0
19,0.630460625171,0.50029169429,0.745983324287,0.348505700846,0,0,1,0,0.201968614342,0,0,0.386469459099,0,0
20,0.639422091664,0.527423684099,0.736621248719,0.410673397403,0,0,1,1,0.410382255182,1,0,0.235010581725,1,0
21,0.674469645381,0.536417354198,0.669241532567,0.394308042628,1,0,1,1,0.226855212847,0,0,0.256763866799,0,0
22,0.611076902632,0.526572243942,0.683642296763,0.363833459532,1,0,0,0,0.176798568697,0,1,0.465260217454,0,0
23,0.640625836161,0.519919971079,0.679864913185,0.30312194873,0,1,0,0,0.241315846748,0,0,0.25511087794,1,0
24,0.623842783512,0.522412474976,0.662443731779,0.316761843117,0,0,1,1,0.204449305072,1,0,0.228852322833,1,0
25,0.63689594419,0.550016464002,0.654169099833,0.329704612207,1,1,1,1,0.218249166035,1,0,0.290588558817,0,0
26,0.630145738546,0.603941330066,0.642197171171,0.320983658328,1,0,1,0,0.242669087992,1,0,0.23515004134,0,0
27,0.591775393191,0.595587996574,0.649010010668,0.291284383606,1,1,1,0,0.251096735166,0,0,0.227535908587,0,0
28,0.565196136197,0.577671335687,0.696739726802,0.324034125592,0,0,1,0,0.187585860486,0,1,0.262689089278,1,0
29,0.54274185232,0.612767964043,0.684528386763,0.337392573844,0,0,1,1,0.241420592389,1,0,0.273800579391,0,0
30,0.568336146866,0.616788450214,0.678949230197,0.358326414785,0,0,0,0,0.233797705678,1,1,0.44759412543,0,0
31,0.589190077088,0.613780958193,0.69523767682,0.363049632482,1,0,1,0,0.237043311266,1,0,0.213458637697,1,0
32,0.592002963234,0.618261806038,0.66910782611,0.362347560159,0,1,1,1,0.0988663019989,0,1,0.189858871096,1,0
33,0.571992615693,0.631735728418,0.648747329895,0.375692955309,0,0,0,1,0.237911764324,0,1,0.395629118322,0,0
34,0.583350893757,0.608130087471,0.629797886176,0.414260238559,1,0,1,0,0.185228328897,1,0,0.196189492412,1,0
35,0.622528183582,0.635629286909,0.583894101441,0.433346103874,0,1,0,1,0.206808345964,1,0,0.415231344484,1,0
36,0.605309526552,0.639856378374,0.545965842117,0.416162519222,0,0,1,1,0.255317350618,1,0,0.210441540612,1,0
37,0.623117773333,0.652436440394,0.522804497503,0.448205029369,1,1,1,0,0.202453704389,0,1,0.192252927822,1,0
38,0.589324587579,0.679485521195,0.503566329843,0.476483011192,1,1,1,0,0.272195888236,0,1,0.211309088088,1,0
39,0.626296419957,0.671835203293,0.484417381834,0.471474077896,1,0,1,1,0.112729553696,0,0,0.363715506007,1,0
40,0.63848771993,0.709431689156,0.50006282083,0.468189004038,1,0,0,0,0.0651155658365,0,1,0.286836732938,1,0
41,0.647391350165,0.698933527392,0.504012420205,0.472315375752,1,0,1,1,0.169554517088,0,0,0.273932492491,0,0
42,0.687047871659,0.707092761979,0.528705964931,0.474274309668,1,0,0,0,0.233897017828,0,1,0.357057365898,1,0
43,0.688393437761,0.674265601574,0.538974603078,0.46958486492,1,1,1,1,0.226454643779,1,0,0.25356082356,0,0
44,0.708552102301,0.672795840229,0.533717290497,0.452409597507,1,1,1,1,0.498895642853,1,0,0.182117655013,1,0
45,0.674432028044,0.676107746045,0.554583637687,0.482887631605,1,0,1,1,0.230114100303,0,1,0.219935661424,1,0
46,0.640047851692,0.640003685914,0.573980983664,0.520905051059,1,0,0,1,0.243913659405,1,0,0.252408017781,1,0
47,0.669596817259,0.611444033964,0.524697059024,0.555548894834,0,1,0,1,0.276395977164,1,0,0.22614825523,1,0
48,0.650674125756,0.58396427198,0.544723473308,0.550455792739,0,0,1,0,0.18617043595,0,1,0.0212582336262,1,0
49,0.635210675153,0.61879236929,0.4823947151,0.563724450951,0,0,0,1,0.0958839188879,0,1,0.272283427821,1,0
50,0.654446956234,0.591838951035,0.434375497009,0.549765665267,0,1,1,0,0.264278989262,1,0,0.395347180486,1,0
51,0.641849267218,0.613509881525,0.456277437319,0.578797762615,1,0,1,1,0.318076894168,0,1,0.254559680414,1,0
52,0.636262142078,0.563108288884,0.480387314897,0.599332977223,1,0,1,0,0.182632025542,1,0,0.273693117004,1,0
53,0.629855156152,0.572712320647,0.476205874362,0.666690545967,1,1,0,1,0.217750492259,0,1,0.292887831304,0,0
54,0.643321667223,0.559044421268,0.494997589183,0.634225276028,0,1,1,1,0.359547414307,0,1,0.232079816783,1,0
55,0.618343540041,0.586350259319,0.464766665943,0.596761915404,0,1,0,0,0.0107184675621,0,1,0.251094320281,1,0
56,0.621171973468,0.598134139982,0.482137197569,0.584515994225,0,1,0,0,0.219170746564,0,1,0.283559130122,1,0
57,0.64598077274,0.585626128473,0.449298082447,0.596054492802,0,0,1,1,0.184903224988,1,0,0.238640455906,1,0
58,0.645258071345,0.550205888105,0.484144883026,0.563192363124,1,1,1,0,0.428023292774,0,1,0.225847300174,1,0
59,0.615058002762,0.572155905488,0.512637500022,0.568889266386,1,0,0,1,0.249904989364,1,0,0.234310265042,0,0
60,0.664448066974,0.600411096135,0.513003664695,0.545460552018,1,1,0,0,0.0982800886386,1,1,0.362698235655,0,0
61,0.68255068018,0.54957040133,0.521622022845,0.532057985692,0,1,0,1,0.192085697028,1,0,0.203182395971,0,0
62,0.744774640977,0.49872932638,0.551208421522,0.483375793821,1,0,1,1,0.243231152501,0,1,0.179641190333,1,0
63,0.733645365783,0.486695901873,0.544093986653,0.498482657602,0,1,1,1,0.235693088629,0,1,0.228058127492,0,0
64,0.747781732418,0.445127102056,0.582779141508,0.497624463881,0,1,1,1,0.206775745015,0,1,0.244515871379,0,0
65,0.722143316084,0.413252290666,0.532843557208,0.508879959342,0,0,1,1,0.287160629404,1,0,0.21303512722,1,0
66,0.704874034594,0.392310059317,0.534039663507,0.466497585593,0,0,1,1,0.338352873276,1,0,0.269518384369,1,0
67,0.719611799094,0.383318928887,0.540187249999,0.486069103815,0,1,1,1,0.261504588131,0,1,0.237956439699,1,0
68,0.703934768325,0.433305512215,0.550043971828,0.523483235924,1,0,1,0,0.216666510705,1,0,0.209054189116,0,0
69,0.739774561716,0.399628060923,0.577146657159,0.550913644459,1,1,0,1,0.230392415812,0,1,0.22818490896,0,0
70,0.749726880015,0.391977442122,0.541111919226,0.555132673666,1,1,0,1,0.382887580759,0,1,0.233990896487,0,0
71,0.749982136852,0.428851453043,0.540662262206,0.55852613166,0,0,1,0,0.153969754168,0,1,0.287776425107,0,0
72,0.715991827465,0.414247917483,0.560435275133,0.52465798444,0,0,1,1,0.186461731466,1,0,0.3415399179,1,0
73,0.695566731864,0.426205638123,0.566699367648,0.528065852279,0,1,0,1,0.25095697369,1,0,0.299372099685,1,0
74,0.731898418778,0.374231037494,0.523404077891,0.535450394387,0,1,1,0,0.227459235984,1,0,0.281209145049,0,0
75,0.747656942121,0.359996913992,0.540836075276,0.506474709499,1,1,0,0,0.155927924132,1,0,0.257667637551,0,0
76,0.743586522086,0.400820805969,0.518036690426,0.498288972842,1,0,1,1,0.641811260428,0,1,0.239679158364,0,0
77,0.732956861214,0.441746616248,0.532360407875,0.498411868953,0,0,1,1,0.197035607783,1,0,0.258770636325,1,0
78,0.737566888847,0.385325317143,0.58089275689,0.465608575733,1,1,1,0,0.184216190175,0,1,0.189911696707,0,0
79,0.708814126862,0.409332741607,0.599830078875,0.48563992436,0,1,1,1,0.221884775568,0,0,0.18504600507,1,0
80,0.690762344292,0.410192179694,0.611714217255,0.461450128181,0,1,1,1,0.177038849766,0,0,0.21738735391,1,0
81,0.663963860792,0.424104865448,0.571666444419,0.445356465567,1,1,1,1,0.241429346348,1,0,0.225829188535,0,0
82,0.586105799287,0.447161349974,0.572761023504,0.440516789478,1,1,1,0,0.0738354141095,0,0,0.188916462181,1,0
83,0.563501704093,0.463626795067,0.608211716062,0.416616454501,1,1,0,0,0.271603637662,1,1,0.330760474489,1,0
84,0.558900570842,0.466063677887,0.640364298412,0.400376264447,1,1,1,1,0.216052224306,1,1,0.176503952714,0,0
85,0.578368146688,0.412948969062,0.64657135599,0.446772074007,0,1,0,0,0.610767912335,0,1,0.64615020525,1,0
86,0.565076984214,0.450077671327,0.625960173495,0.454417890792,0,0,0,1,0.203681371606,0,1,0.260080409637,0,0
87,0.575063132294,0.4496869605,0.602689191989,0.493891329384,0,0,0,1,0.193448899673,0,0,0.252516989472,1,0
88,0.586900404594,0.481089933626,0.591549594094,0.502988785002,0,1,1,0,0.337883479982,1,0,0.210332568922,1,0
89,0.536938532405,0.495665450852,0.586531758293,0.504019007219,0,1,0,0,0.202353486656,0,0,0.232160413573,0,0
90,0.48829076693,0.512863957313,0.577452352466,0.53001217211,0,0,1,0,0.128135011397,0,1,0.229847859219,0,0
91,0.509493593152,0.516886584247,0.580650964802,0.524339611297,1,1,1,1,0.165867893106,1,0,0.291613375686,0,0
92,0.493908698218,0.524202949706,0.577728743453,0.491606480414,1,1,0,0,0.232974229856,1,1,0.228116386596,0,0
93,0.487195556851,0.502355080995,0.539190086912,0.518130259842,1,0,1,0,0.164091745108,1,0,0.204501225101,1,0
94,0.43182750318,0.533118053447,0.551905311056,0.546114686312,0,0,1,1,0.223217188428,1,0,0.186257371814,1,0
95,0.413919746817,0.51376929339,0.544397035913,0.596220246985,0,1,1,1,0.306275954355,0,1,0.208061973197,1,0
96,0.444105430677,0.516514402515,0.52912790144,0.575967466345,1,0,1,0,0.288084322958,1,0,0.229934795083,0,0
97,0.449937281624,0.518556607533,0.542511511221,0.576678387062,0,0,0,0,0.272552989371,1,0,0.331617154981,1,0
98,0.485481358368,0.535484863037,0.511578164919,0.519969100776,0,1,1,1,0.257101950714,0,1,0.204145935129,0,0
99,0.480987504254,0.480315209257,0.543116024532,0.516874205682,0,1,1,0,0.0921595623263,1,0,0.260544067578,1,0
100,0.510945283013,0.457827410057,0.546450080953,0.540134744001,1,0,1,0,0.257939915847,1,0,0.218340931669,0,0
101,0.502564396422,0.403756218954,0.542977634054,0.559215440559,0,1,1,1,0.255673546171,0,0,0.248101372047,0,0
102,0.497853998098,0.446495314632,0.534150150417,0.53470647159,1,0,0,1,0.250869132244,1,0,0.339272038921,1,0
103,0.493479424357,0.426533283801,0.510737299377,0.562315889764,1,1,1,1,0.275355765402,1,0,0.259834393216,1,0
104,0.485983252047,0.446003861246,0.516075417517,0.564254675443,0,0,1,0,0.233122443429,0,1,0.220247785324,0,0
105,0.504455800556,0.416333811895,0.506562117082,0.522296473014,1,1,1,1,0.31352242085,1,0,0.319355575833,0,0
106,0.516535341085,0.392140503805,0.50176118983,0.554937351494,1,1,0,0,0.220795964244,1,1,0.317167991785,1,0
107,0.514291797422,0.419967248872,0.504952870819,0.583289646501,1,0,1,1,0.255890885831,0,0,0.240330573623,0,0
108,0.501706763235,0.461160920066,0.502193014374,0.619552509614,0,1,1,1,0.282987104212,0,1,0.416775663512,0,0
109,0.52547106556,0.422879839911,0.506533385553,0.62222400003,1,1,1,1,0.286206146064,1,0,0.203970252238,1,0
110,0.549830266871,0.41655369581,0.49865120985,0.607384253111,1,1,1,1,0.217329396668,1,0,0.385776085212,1,0
111,0.524106750081,0.411387261977,0.477051093287,0.575552927464,1,1,0,1,0.236522601665,0,1,0.228961596384,0,0
112,0.548217005308,0.415932418325,0.475787447637,0.629726388053,0,0,1,1,0.247741856027,1,0,0.0960659408529,1,0
113,0.548333239234,0.394270162035,0.444783822408,0.647471012109,1,1,1,0,0.413361619688,0,0,0.216519202714,0,0
114,0.563229875608,0.396517622706,0.423278605594,0.611972153008,1,0,1,1,0.448502725952,0,1,0.233041846638,0,0
115,0.527566533657,0.401447084018,0.430807786145,0.608497589702,0,0,1,1,0.166391621314,1,0,0.246812427119,1,0
116,0.57868176411,0.358028366209,0.421523462397,0.591215001536,0,1,1,0,0.764169262919,1,0,0.282157893037,1,0
117,0.551406989486,0.369859909789,0.379938227769,0.567470964899,0,1,0,0,0.239527020603,0,1,0.239946305029,0,0
118,0.541852418392,0.419034053348,0.407983226016,0.587773998611,0,0,1,1,0.189302843799,1,1,0.256374164714,0,0
119,0.519384251102,0.382699575711,0.413036062436,0.554235265844,1,1,1,1,0.21375778159,1,0,0.424835946289,0,0
120,0.532029749359,0.345857107142,0.378424789216,0.553828667696,0,1,1,1,0.323575889425,0,0,0.537420305018,0,0
121,0.545421137146,0.347710936233,0.389214360449,0.607787039565,1,0,1,0,0.209521469385,1,0,0.225995513747,1,0
122,0.536504555814,0.369350051463,0.345325941181,0.610170822099,1,0,1,-1,-1,-1,-1,-1,0,0
123,0.528540134146,0.332107708905,0.366764977973,0.647344958531,1,1,0,1,0.2293380166,0,1,0.219068415808,0,0
124,0.543060818181,0.325331008555,0.350507863634,0.636157286626,1,0,1,0,0.19233231717,1,1,0.63813097552,1,0
125,0.531013536084,0.381306751727,0.343675643294,0.654047122277,0,1,1,0,0.248923338567,1,1,0.281373357237,1,0
126,0.51179997311,0.423498291869,0.359795359593,0.623665147123,1,1,1,1,0.26808213145,1,1,0.201862963118,1,0
127,0.504841777031,0.454279986356,0.362951909661,0.599822713045,0,0,1,1,0.452549469676,1,1,0.237033349866,1,0
128,0.504213050987,0.422938759291,0.342867783021,0.595427797128,1,1,1,1,0.271774490784,1,1,0.202835256236,1,0
129,0.516249841653,0.381856615493,0.353732405949,0.602037213629,0,1,0,0,0.320154600945,0,1,0.248618459322,0,0
130,0.544763877619,0.367811565606,0.339291207854,0.575640585647,0,1,0,0,0.222022122159,0,0,0.20641894574,1,0
131,0.561452931743,0.330335651579,0.321862511663,0.616552141394,0,0,0,1,0.179776423899,0,0,0.212171805793,0,0
132,0.574234284553,0.313066107316,0.34791650564,0.603615464777,0,0,1,1,0.193511384825,1,0,0.223315293135,1,0
133,0.571633109834,0.311701934001,0.345720120366,0.563357582064,0,0,0,1,0.265934996726,0,1,0.231747166359,1,0
134,0.599710720204,0.324523874273,0.356347479126,0.521559261105,0,1,1,0,0.242418845522,1,0,0.258869646615,0,0
135,0.614422786883,0.348995065858,0.38317897602,0.472041360976,1,1,1,0,0.272224866857,0,1,0.22732913405,0,0
136,0.625117716461,0.310481094558,0.372562405988,0.431263949922,0,1,1,0,0.222059552878,1,1,0.206478110425,0,0
137,0.618206177429,0.319614032677,0.362048145076,0.418649791252,1,0,1,0,0.329065828862,1,0,0.708217280495,0,0
138,0.608799963836,0.332371878132,0.392421736508,0.38744610582,1,1,0,0,0.236352352264,1,1,0.316902354422,0,0
139,0.606035598202,0.301127954712,0.392671552134,0.411119518429,0,0,0,0,0.162262167776,1,0,0.40264073724,0,0
140,0.618688909488,0.278657998769,0.369895923467,0.41184835,0,1,1,1,0.20276613015,0,1,0.312512395152,0,0
141,0.59963537685,0.296636009895,0.408413507157,0.451369220438,1,1,1,1,0.267229677006,1,1,0.870333649583,1,0
142,0.591371795718,0.273374347855,0.438751818425,0.457537350879,1,1,1,1,0.241256078341,1,1,0.257687560354,1,0
143,0.624116400047,0.31788414165,0.454185636081,0.485632000618,1,0,1,0,0.255112689104,1,1,0.282204077715,1,0
144,0.560423730968,0.301740018316,0.465617565298,0.502581370886,0,1,1,0,0.268893230987,1,1,0.25597540681,0,0
145,0.540843172921,0.344913997254,0.469632500468,0.509289683239,1,0,1,0,0.322688721008,1,0,0.224458439375,1,0
146,0.503358518662,0.348800272394,0.460019607291,0.486593866505,0,0,1,1,0.304434302598,1,0,0.214268831651,0,0
147,0.538648575015,0.34459407017,0.467958801645,0.48147955288,0,0,1,0,0.288953379738,0,0,0.241413951456,0,0
148,0.496408874605,0.370537612732,0.423768867315,0.536130803616,0,1,0,0,0.228053901443,0,1,0.233865926182,1,0
149,0.496908938077,0.349422242432,0.42045610167,0.518255707235,1,0,1,1,0.225889862523,0,1,0.204965184904,0,0
150,0.466070249636,0.297843090223,0.39968801672,0.526938355184,0,1,0,1,0.178313909104,1,0,0.365443960026,0,0
151,0.493747118072,0.285304806918,0.34938634494,0.546127109972,0,0,1,0,0.256165579012,0,0,0.200553189807,1,0
152,0.473613379092,0.305384270651,0.370614215781,0.515345634976,0,0,0,0,0.245916504743,1,0,0.542337011102,1,0
153,0.436667596784,0.313533231529,0.346764243815,0.522116940022,0,1,1,0,0.238432775786,1,0,0.238945335152,0,0
154,0.455261487767,0.315790892845,0.374462666993,0.454974331332,0,1,1,0,0.292376781242,1,1,0.212716060526,0,0
155,0.451984179649,0.363097645342,0.385600678163,0.495857436791,1,0,1,0,0.250069503412,1,0,0.253228776857,0,0
156,0.439281367131,0.350088646536,0.399057847403,0.532037015567,1,0,1,1,0.274563079365,0,1,0.285630195965,0,0
157,0.461266939413,0.356190351189,0.41507805369,0.579361571666,0,0,0,1,0.264341776275,0,0,0.198120193058,1,0
158,0.404115792945,0.396589901831,0.456145991201,0.53816574001,1,0,1,0,0.224807692134,1,1,0.0866149861131,1,0
159,0.400005952756,0.412733219486,0.462528610455,0.492895470581,0,1,1,0,0.201200982738,1,1,0.238958315159,1,0
160,0.395089644294,0.404118826427,0.485705850446,0.528996215436,1,0,0,0,0.321625567838,0,0,0.231417534541,0,0
161,0.394059777297,0.404710078396,0.505807496023,0.550499357822,0,1,0,0,0.466107238407,0,1,0.181234108923,0,0
162,0.430474890262,0.415418577842,0.500202900199,0.563717351635,1,1,1,1,0.234569865192,1,0,0.229708701465,0,0
163,0.430783410829,0.385250551698,0.521567135326,0.575313057128,0,0,0,1,0.184406966098,0,1,0.227506024384,0,0
164,0.442587920983,0.368427110315,0.480574439402,0.569976993854,1,0,1,1,0.555505379609,0,0,0.185364769904,0,0
165,0.470640535241,0.30066115145,0.465930746442,0.585237032118,0,0,1,1,0.249365866263,1,1,0.209814576065,1,0
166,0.445991827403,0.324000651479,0.463231663282,0.602439867504,1,1,0,1,0.191151740212,0,1,0.266235046201,0,0
167,0.446777421719,0.332480922934,0.449951980691,0.611800606851,1,0,0,0,0.223608399816,0,0,0.194671133399,1,0
168,0.497280972288,0.359123854011,0.4888911677,0.595190491588,0,1,1,0,0.213384078119,1,1,0.181780476681,1,0
169,0.503185330702,0.393907571086,0.42200901231,0.595552886826,0,1,1,0,0.0771739927741,1,1,0.218868885926,1,0
170,0.487950328208,0.363014214257,0.438570924758,0.563215368664,0,1,1,1,0.216188061593,0,0,0.21671148794,1,0
171,0.452775055451,0.308091526486,0.444265620646,0.584423196302,1,0,1,0,0.238019528572,1,1,0.182410459834,1,0
172,0.483621995532,0.302395528826,0.416532643299,0.617110128207,1,1,1,0,0.334454343125,0,0,0.182870193586,1,0
173,0.452965521445,0.31203978527,0.407241759269,0.635703943738,0,1,1,1,0.390885680245,0,0,0.532719731151,1,0
174,0.455113225432,0.332021723577,0.456301414306,0.64205238436,0,1,0,1,0.498177516393,1,0,0.845369171034,0,0
175,0.449926860983,0.37610057185,0.461661842536,0.663177456706,0,1,0,1,0.282941825116,1,1,0.179374647389,0,0
176,0.454952454889,0.358093531834,0.449928712091,0.667864103645,0,1,1,1,0.264712159278,0,0,0.211818025125,1,0
177,0.428658686647,0.357248921733,0.487171300357,0.675054604775,1,0,1,0,0.219840877183,1,1,0.204257019845,1,0
178,0.410034629832,0.338705809407,0.44784690081,0.667313679006,0,1,0,1,0.233591534862,1,1,0.743404269578,1,0
179,0.435765722424,0.311830614767,0.41397184324,0.649220278257,1,1,1,0,0.207572657101,0,0,0.23202638745,1,0
180,0.475407120441,0.335851868595,0.41291764416,0.647172075204,0,0,0,1,0.274680805014,0,0,0.224490436602,0,0
181,0.490520849799,0.342694251595,0.414819233136,0.626793996166,0,0,1,1,0.224481682643,1,1,0.219548977945,0,0
182,0.472909398388,0.348915969904,0.37253150496,0.667253199522,0,1,1,1,0.0515759087448,0,1,0.214587596485,0,0
183,0.455441264589,0.369681251605,0.331820599575,0.672537757425,0,1,1,0,0.283979320131,1,0,0.372433241256,0,0
184,0.465240874704,0.43459726392,0.275384480774,0.707933955358,0,0,1,1,0.233849927568,1,1,0.239553584339,1,0
185,0.443992194618,0.442302257662,0.311943087316,0.741500628556,0,1,1,1,0.322267927278,0,0,0.240054371138,1,0
186,0.432290462291,0.469970044387,0.339529384832,0.745157016361,1,0,0,0,0.242760249905,0,0,0.256507285256,0,0
187,0.422182070495,0.485163030704,0.309040799188,0.746437532359,0,1,1,1,0.141871179765,0,0,0.216980143909,0,0
188,0.443619890688,0.459866335138,0.308119600105,0.748391638864,1,1,1,1,0.240970216317,1,0,0.185439933204,1,0
189,0.479419375513,0.457124943901,0.318274567306,0.71494332703,0,1,0,0,0.225390283166,0,1,0.247187941754,1,0
190,0.462865746326,0.412707632712,0.332799029163,0.676036742713,0,0,0,1,0.436551459541,0,1,0.237005880547,0,0
191,0.466450232763,0.461102631843,0.330532638813,0.672479355844,1,0,1,0,0.247692652742,1,1,0.200171336099,1,0
192,0.491792995639,0.467591094279,0.328390591454,0.704672595251,0,0,0,1,0.397543820355,0,0,0.523304395966,0,0
193,0.508015327643,0.436878467346,0.360637885665,0.736342865267,1,0,0,0,0.254147338782,0,1,0.281246877629,0,0
194,0.469653877657,0.47057453955,0.399659320262,0.702858405611,1,1,1,1,0.211897112613,1,0,0.247041237484,0,0
195,0.448099786066,0.440327925046,0.384643489476,0.682755091213,1,1,1,0,0.249663198992,0,0,0.236840159057,1,0
196,0.460006483035,0.419844789652,0.409671409893,0.651159578032,0,1,0,0,0.199469811973,0,0,0.277215528798,0,0
197,0.462097179833,0.415407064069,0.427744674235,0.628765526161,1,0,0,0,0.330590225088,0,1,0.237736081433,1,0
198,0.463785761597,0.381658701033,0.431656923792,0.607352125895,0,0,1,0,0.267092934137,0,1,0.264862184015,1,0
199,0.457441858232,0.372082218511,0.479377646619,0.61053047057,1,1,1,0,0.240903505115,0,1,0.238663699176,0,0
200,0.430686932496,0.405512675695,0.497076362552,0.613488865935,1,0,0,0,0.249441331423,0,0,0.508470662316,0,0
201,0.387541341577,0.406373869385,0.490780510557,0.590426927274,0,1,1,0,0.183233030074,1,0,0.330336360292,1,0
202,0.398275814255,0.374375560805,0.517667636883,0.637972636742,1,1,0,1,0.231732375188,0,1,0.269491216912,1,0
203,0.369601894049,0.445328337352,0.525135971401,0.64260997175,0,0,1,1,0.269500272731,1,0,0.248615742576,1,0
204,0.357774119462,0.450212633682,0.536443947402,0.661508703734,1,1,1,0,0.267341667303,0,1,0.230426224203,0,0
205,0.40004010871,0.442736302313,0.540136393225,0.697365315977,0,0,0,1,0.209111844499,0,0,0.217522587477,1,0
206,0.403825014682,0.40634992775,0.548867666675,0.694581962467,0,1,1,0,0.238857795566,1,1,0.439295976469,1,0
207,0.39875349174,0.440683870859,0.541693975598,0.731504140182,0,1,0,0,0.274117533062,0,0,0.205170751999,0,0
208,0.396241029205,0.398257202257,0.48450153818,0.715800568598,1,0,0,0,0.210510364837,0,1,0.250921052274,0,0
209,0.377087879687,0.354853609067,0.489066928672,0.715995415037,1,1,1,1,0.144301157907,1,1,0.195367525893,0,0
210,0.384753856264,0.302028862483,0.499877886448,0.70600798527,0,1,1,0,0.160713320838,1,0,0.153097980643,0,0
211,0.433109988729,0.321228663759,0.524071004067,0.73061600302,1,1,0,0,0.259777341555,1,1,0.246836877832,0,0
212,0.418900974456,0.337208260774,0.508002027218,0.74233178549,0,0,1,0,0.188155471511,0,1,0.191294520294,1,0
213,0.436453581828,0.370088764326,0.511134508335,0.710577530113,0,1,1,0,0.233992405791,1,0,0.205075967758,1,0
214,0.445861337497,0.352410911909,0.516666507302,0.717737164412,1,1,1,1,0.234422859061,1,0,0.197520094108,0,0
215,0.434589764516,0.339997343361,0.502678699151,0.690546435221,1,1,0,0,0.480178773944,1,0,0.230023240251,1,0
216,0.4316604964,0.280268678424,0.480208894138,0.658589034706,1,0,1,1,0.262037975879,0,1,0.209178253839,0,0
217,0.454602235074,0.263520170664,0.464755907474,0.686870451278,0,1,1,0,0.289130873793,1,0,0.209618668511,0,0
218,0.437898551111,0.270557258345,0.489602925671,0.729476113907,0,1,1,1,0.230964743583,0,0,0.212755906129,0,0
219,0.449120728125,0.259706281594,0.500170953257,0.726437321609,0,1,0,0,0.324755258941,0,1,0.298532021527,0,0
220,0.485029167674,0.288249174341,0.510019439354,0.704300500722,1,1,1,1,0.298623485302,1,1,0.187024097837,1,0
221,0.467997175497,0.293947812967,0.534708871729,0.694283499289,0,1,0,0,0.224385690961,0,0,0.235465485707,0,0
222,0.458803640448,0.296012537942,0.549464487312,0.696409767989,0,1,1,0,0.240831360423,1,1,0.238565896329,0,0
223,0.482445762427,0.303149215475,0.565699750027,0.683364263939,0,0,0,1,0.249349263928,0,1,0.225712066607,0,0
224,0.50376978471,0.310352678268,0.550110286899,0.676650601563,1,1,1,1,0.244395127124,1,1,0.204823612264,1,0
225,0.519532815885,0.294759798836,0.516122046173,0.677311720077,1,0,0,1,0.207560884536,1,0,0.511930287096,1,0
226,0.526599498531,0.287804110154,0.496735993968,0.686729873698,1,1,1,1,0.306789117441,1,0,0.261868330201,0,0
227,0.514448632408,0.29279799523,0.516178646838,0.711386914468,1,1,1,1,0.13921812661,1,0,0.251653366184,1,0
228,0.518953314275,0.252072246537,0.525900401381,0.711167729919,1,1,1,0,0.25434022773,0,1,0.297453473465,0,0
229,0.519356343776,0.253053606599,0.524063650843,0.67914940446,1,1,1,0,0.55875641869,0,1,0.191327121243,0,0
230,0.471321835849,0.269793619085,0.503689544906,0.677023073625,0,0,1,1,0.191345534741,1,1,0.210485914125,1,0
231,0.454396821763,0.287670605501,0.51654378554,0.696595704039,1,0,1,0,0.279771986548,1,1,0.269526534606,0,0
232,0.423510126136,0.319586473481,0.533796084569,0.691461373778,1,0,1,1,0.229568034407,0,1,0.312649439882,0,0
233,0.444260855897,0.337320889495,0.517521884795,0.69870474452,1,0,1,0,0.259374055742,1,0,0.278476098825,1,0
234,0.434377544066,0.368705823385,0.494012347878,0.695948351577,1,1,1,0,0.265179741407,0,1,0.244281929385,0,0
235,0.447290394871,0.363376408202,0.505247245167,0.674552813569,1,1,0,1,0.206984028856,0,1,1.12473575874,0,0
236,0.450445390977,0.366901571115,0.49488668617,0.714313854325,0,1,1,1,0.263735640112,0,0,0.402818231296,0,0
237,0.407496196588,0.396270138806,0.484312903102,0.739952591713,0,0,1,0,0.176244352565,0,1,0.192663458291,1,0
238,0.437304465458,0.387524421283,0.484024714126,0.702470209329,0,0,1,1,0.184693129983,1,0,0.230382454411,0,0
239,0.382942701461,0.375331663493,0.529174969657,0.69565272665,0,0,0,0,0.179787894604,1,1,0.350878580482,0,0
240,0.363306652341,0.365718836122,0.49774907927,0.739815967332,0,1,1,0,0.222926194772,1,0,0.180678383488,0,0
241,0.392037800135,0.385725870248,0.516178331464,0.738991369039,0,1,0,0,0.233998141142,0,1,0.175787335558,0,0
242,0.364050097318,0.377685900411,0.4810303138,0.736240482429,1,0,0,0,0.0770755862059,0,1,0.282812025041,0,0
243,0.378903374556,0.415870731417,0.534946051711,0.716422312218,1,0,1,1,0.232134151698,0,0,0.25127875713,0,0
244,0.398066430557,0.392488980081,0.485697629757,0.716067571146,1,1,1,1,0.288593561856,1,0,0.278396407616,1,0
245,0.441783056678,0.415912673618,0.472179749798,0.739157679368,0,1,1,0,0.203784607946,1,0,0.24152473431,1,0
246,0.441252343545,0.433167474763,0.511227609127,0.691911618807,0,0,1,0,0.868226662324,0,1,0.57821194058,1,0
247,0.441549365341,0.469108113281,0.510033309613,0.706219096622,0,1,1,0,0.237048141036,1,0,0.365468410737,1,0
248,0.448995863351,0.491062142167,0.530130411776,0.711450139751,1,1,0,0,0.280168933288,1,0,0.237967608542,0,0
249,0.484348774336,0.492234123736,0.577159791662,0.738739371663,0,1,0,0,0.232658785489,0,1,0.246416989683,1,0
250,0.523627931203,0.542036791444,0.554141085359,0.740018827737,0,1,1,1,0.219785636686,0,1,0.228213887582,1,0
251,0.560273292204,0.539426046407,0.531168175481,0.731761117784,0,0,0,1,0.3002109704,0,1,0.244683404035,0,0
