trial,rwrd_prob0,rwrd_prob1,rwrd_prob2,rwrd_prob3,symbol0,symbol1,common,choice1,rt1,final_state,choice2,rt2,reward,slow
1,0.534975648376,0.55805304272,0.377579598891,0.596191185387,1,1,1,0,0.8698551218989999,0,0,1.12115757588,1,0
2,0.576268304972,0.564036184953,0.341897784322,0.55850203018,1,1,0,0,0.35885727567599995,1,0,0.828685531962,1,0
3,0.5700643970220001,0.555650920041,0.380250739446,0.5778383220059999,0,0,1,0,0.30083841843000003,0,0,0.39197684123800003,1,0
4,0.5766372987439999,0.585045242819,0.35717478033600003,0.595317796795,0,1,1,1,0.24805292223900002,0,0,0.48585314169200006,1,0
5,0.584003292297,0.6066874531750001,0.371259903582,0.6038761521239999,1,1,0,0,0.21937946471,1,0,0.36376130657399997,0,0
6,0.56839758556,0.65066451063,0.37852253134499997,0.6220683510639999,1,0,0,0,0.265058553453,0,0,0.518913240672,0,0
7,0.568013968093,0.6997616624549999,0.362402251689,0.6013269439310001,1,1,1,1,0.385663422166,1,1,0.164823856664,0,0
8,0.583024185836,0.744206658459,0.38412283241899997,0.553453385739,0,1,0,1,0.271529543873,1,1,0.6345956649769999,1,0
9,0.557252685759,0.749009198417,0.38700389367700005,0.542878582194,1,0,0,0,0.22145173924699998,0,0,0.573862777089,1,0
10,0.6266721475399999,0.702814155467,0.403346081772,0.499580387038,1,1,0,0,0.21933116697900001,1,0,0.531754098138,0,0
11,0.62887070785,0.7086128936730001,0.389995697138,0.5264672817239999,1,1,0,1,0.238560908722,0,0,0.351025798535,1,0
12,0.64484755669,0.7256069884530001,0.383385410897,0.5232354003140001,1,1,0,1,0.25769707361,0,0,0.24489666549400002,1,0
13,0.603584443469,0.680525397534,0.36877700215400006,0.531760786261,1,1,1,1,0.351467722777,1,1,0.31739397516,1,0
14,0.6096270050379999,0.682271374316,0.37094058946999997,0.564106923212,0,1,1,0,0.25085902043200003,1,1,0.269850895847,1,0
15,0.662636621717,0.656117254917,0.40891188288400004,0.608661451793,1,1,1,1,0.285868838455,1,1,0.235682967654,1,0
16,0.6846710874899999,0.6251034865389999,0.33951888243199996,0.6297016404860001,1,0,1,0,0.20635688703,1,1,0.254810076718,0,0
17,0.645981244193,0.624371786413,0.301288652168,0.640109902627,1,0,1,1,0.212186121345,0,1,0.244606577246,0,0
18,0.62963084647,0.657830355555,0.297576575301,0.664656627409,0,1,1,1,0.265911310272,0,0,0.27171216966999995,1,0
19,0.6037275895549999,0.719444680663,0.28981184428,0.640094190936,1,0,1,1,0.319770525404,0,0,0.272249481931,1,0
20,0.559272526457,0.7142314275149999,0.352340895677,0.630148027714,1,0,1,1,0.272221408875,0,0,0.355352067822,1,0
21,0.530010798345,0.7136579021930001,0.33646766014799995,0.666247417592,1,0,1,1,0.23811898448000002,0,0,0.331849486157,0,0
22,0.532188385421,0.740209374835,0.29656830858600003,0.6918964983,1,0,1,1,0.225201454366,0,1,0.278996373142,0,0
23,0.5454587621320001,0.7202034309119999,0.284408333395,0.6932850530920001,0,0,1,1,0.273689961769,1,1,0.252812663665,1,0
24,0.549541290978,0.703148247755,0.256505520716,0.7195795789239999,1,1,0,1,0.40216947372100004,0,0,0.466675923732,0,0
25,0.572657818409,0.6909393459800001,0.269058792378,0.701138444044,1,1,1,1,0.309407643418,1,1,0.28058053873100003,1,0
26,0.580818583398,0.699377936457,0.272575797747,0.6781683099779999,0,1,1,0,0.237993712239,1,1,0.291766595176,1,0
27,0.5339946393289999,0.712229152074,0.286533998925,0.664614410627,0,1,1,0,0.307745597737,1,1,0.494890552813,1,0
28,0.511511113189,0.688900707878,0.289326617425,0.630547431843,0,0,1,1,0.300410077925,1,1,0.244812748186,0,0
29,0.52654213338,0.704623125988,0.266001701292,0.622407860402,1,0,1,1,0.255516431039,0,0,0.27992640633099997,1,0
30,0.517931648007,0.713803344271,0.250886249289,0.6614876184749999,1,0,1,1,0.261292537849,0,0,0.192403068717,0,0
31,0.46076365601999997,0.646216683327,0.266202276939,0.645109224587,0,0,1,0,0.240394411348,0,1,0.262140766757,0,0
32,0.483630636874,0.6559884071850001,0.25819614975,0.647679184775,0,0,1,1,0.270230938621,1,1,0.233322114173,1,0
33,0.495293448382,0.631381486139,0.253580132473,0.664879112912,1,0,0,0,0.281329153567,0,1,0.447117153694,1,0
34,0.470936499953,0.636556936599,0.279623182237,0.658311129568,1,1,1,1,0.273861116855,1,1,0.24500533539,1,0
35,0.444661035538,0.6107036714590001,0.269804336805,0.661545302043,0,1,1,0,0.218341969069,1,1,0.250735861217,1,0
36,0.47500570857,0.6636658260939999,0.29667570730500004,0.719232678453,1,0,1,0,0.288104721556,1,1,0.437929717745,1,0
37,0.49112748636500003,0.666175990422,0.301249574409,0.729362114545,1,0,1,0,0.256761908787,1,1,0.217111584362,1,0
38,0.48434927440700004,0.6801868849989999,0.28811112588000004,0.738459155809,1,1,1,1,0.238502347722,1,1,0.254871656326,0,0
39,0.490833048005,0.7067754134119999,0.26003600216999995,0.6708065551219999,0,0,1,1,0.228270473333,1,0,0.255358255969,0,0
40,0.47174821965499997,0.7474076615270001,0.268089226996,0.6761540159430001,0,0,0,0,0.196713641241,1,1,0.253189084109,1,0
41,0.49075640212300004,0.7042064921250001,0.253119697652,0.7111179459110001,1,1,1,1,0.274504382264,1,1,0.245622338908,1,0
42,0.493472881758,0.716465690165,0.26087084635499996,0.703423112227,1,0,1,0,0.28030312863699997,1,1,0.502094159446,1,0
43,0.489783462703,0.692324405574,0.25997287560800003,0.7197952275309999,0,1,1,0,0.238214976221,1,1,0.24402428772100002,1,0
44,0.45385430511999997,0.645252845025,0.25452054132199997,0.6601694367100001,1,0,1,0,0.225326122885,1,1,0.22314487659200002,1,0
45,0.43063803030599995,0.6672175819439999,0.265723486791,0.666412968592,1,1,1,1,0.263120305121,1,1,0.26088110155099997,1,0
46,0.414554872166,0.672121556038,0.279819496513,0.6693485729850001,0,1,0,0,0.268952859905,0,0,0.376103188103,0,0
47,0.392604328654,0.656377237332,0.27890871434500003,0.6843308117389999,1,1,1,1,0.27744873271299997,1,1,0.26989587311,1,0
48,0.387891942368,0.621484889251,0.288641986821,0.635388021571,1,1,1,1,0.277893373702,1,1,0.315713214109,1,0
49,0.411008035575,0.612065322344,0.30106901306999995,0.65279627622,0,0,0,1,0.294393991762,0,0,0.262885759263,1,0
50,0.382102111293,0.609667286097,0.284430774909,0.685796281482,1,0,0,0,0.23888903143399998,0,0,0.228687343127,0,0
51,0.463030711533,0.641033626962,0.27622720343699997,0.714627968408,1,0,0,0,0.244734868094,0,1,0.269143032222,1,0
52,0.442785918813,0.645246566751,0.253205976083,0.719907361428,0,0,1,1,0.277162870515,1,1,0.24296203949200001,0,0
53,0.443758355054,0.658900409267,0.292340492894,0.7340488964290001,0,0,1,0,0.325645642563,0,1,0.25143195227,1,0
54,0.436452622947,0.670693356628,0.258218695279,0.7196143179979999,1,1,1,1,0.240805847648,1,1,0.241271920755,1,0
55,0.450483632189,0.659218220973,0.26298528898400003,0.6888052350220001,0,1,1,0,0.259919372975,1,1,0.399050949579,1,0
56,0.440568869,0.656077388587,0.251265832736,0.698334855247,0,0,1,1,0.260441592195,1,1,0.431608148431,1,0
57,0.41814931799000005,0.666090973506,0.265167478189,0.679246494424,0,0,1,1,0.4343064823100001,1,1,0.328170708332,1,0
58,0.434409742822,0.691201731611,0.271134524766,0.737874069334,0,1,0,0,0.181549662897,0,1,0.293950558216,1,0
59,0.4243923979,0.70248755122,0.254015406374,0.7369635815410001,1,1,1,1,0.293986479654,1,1,0.23846793558899998,1,0
60,0.45842702778800004,0.713210283947,0.283960554965,0.711839264552,0,0,1,1,0.27584373872699997,1,1,0.36964970561,1,0
61,0.43316008884400004,0.708263596064,0.27068913816,0.7391839438529999,0,0,1,1,0.38569209894400003,1,1,0.460848802443,1,0
62,0.437404043169,0.687474437127,0.30498163570799997,0.698679225553,0,0,0,1,0.298277431225,0,1,0.285372579265,1,0
63,0.43056438603,0.7152543740289999,0.292150651412,0.692105892869,1,1,0,1,0.25075970822099997,0,1,0.33926107489600005,1,0
64,0.403058823133,0.728442591422,0.27354379466999995,0.692327901828,0,1,0,0,0.21128567051600003,0,1,0.262389198213,1,0
65,0.40858787964599996,0.7374883926100001,0.28743480275899996,0.68368289631,1,0,1,0,0.206432050375,1,1,0.214807480715,0,0
66,0.385625164653,0.7207964116169999,0.266396497616,0.687119206199,1,1,1,0,0.236171982184,0,1,0.226001385541,1,0
67,0.39180017023100006,0.7146581487010001,0.304769698255,0.740566958362,0,0,1,0,0.22598267016999998,0,1,0.255735883856,0,0
68,0.369863502735,0.7282444393109999,0.262732444723,0.725467657144,1,0,1,0,0.23977740783000004,1,1,0.304215335435,1,0
69,0.367143933798,0.747191120753,0.281398045207,0.717795640561,1,0,1,0,0.26160073774799997,1,1,0.272698650833,1,0
70,0.381373795598,0.716757001127,0.311223668183,0.7427074972579999,0,1,1,0,0.248793084972,1,1,0.43318174889100003,0,0
71,0.378576942983,0.698227681542,0.31802420793200004,0.717330064264,0,0,0,0,0.22527510840599999,1,1,0.407091314407,1,0
72,0.35977563292099995,0.685669560529,0.34562342045199995,0.68082334009,1,0,0,0,0.22575235036400002,0,1,0.24492081436000002,0,0
73,0.353860889427,0.703203221745,0.35333321327399997,0.733672634992,1,0,0,1,0.167543320801,1,1,0.223972578963,1,0
74,0.313255938863,0.7097260827490001,0.36233152425,0.73447386507,1,0,0,0,0.21069764563700003,0,0,0.2670906805,1,0
75,0.27720693804499996,0.716071705903,0.346160024168,0.744816040582,0,0,0,0,0.211114817291,1,1,0.211550704317,1,0
76,0.27014577183000005,0.7157836340000001,0.304734865613,0.7403202341740001,0,1,1,1,0.902251730794,0,0,0.241577102046,0,0
77,0.278412121364,0.725568571373,0.30909441825999995,0.7347299169600001,1,1,1,1,0.284236375135,1,1,0.314040603299,1,0
78,0.268840380537,0.720106831738,0.314567002753,0.7410307036660001,0,1,1,0,0.220769835652,1,1,0.49323152574100004,0,0
79,0.303007176188,0.705609731168,0.310336063686,0.7246867443539999,1,1,1,1,0.18660402048500002,1,0,0.229758043459,0,0
80,0.359252640128,0.6998635251549999,0.29196881962,0.712952840272,0,0,1,1,0.26969362636,1,1,0.256840694461,1,0
81,0.373067461442,0.704899583407,0.293913215896,0.7001364727760001,0,1,0,0,0.230258226839,0,0,0.236036144815,0,0
82,0.38498530820200005,0.652884809882,0.284313957592,0.688014452532,0,1,1,0,0.24662119636500002,1,1,0.231104946442,0,0
83,0.384424229819,0.637628147262,0.26199578464400003,0.72958774011,1,0,1,1,0.24984114574299998,0,1,0.212888249614,0,0
84,0.45398152678099996,0.629633403866,0.298264575149,0.742149286788,0,1,0,0,0.215580848138,0,0,0.176037986166,0,0
85,0.466036487785,0.60790325221,0.31369568060499997,0.748170384779,0,1,1,0,0.235969433573,1,1,0.348459075974,1,0
86,0.437776909124,0.593414990471,0.291335951166,0.724351427427,1,0,1,0,0.244526584128,1,1,0.332964258169,1,0
87,0.49887853461599996,0.551491545334,0.285917634171,0.6986032072399999,1,1,0,1,0.260973772823,0,0,0.33617575544399997,1,0
88,0.488557599032,0.5604548982299999,0.296289351087,0.684952005335,0,0,1,1,0.389517581129,1,1,0.22472330682500002,0,0
89,0.476504139021,0.549240318869,0.322656596729,0.68183440079,1,0,1,1,0.22475771895799998,0,0,0.262485491814,0,0
90,0.473421702939,0.527088628077,0.34008518117700004,0.6715162615620001,0,1,1,0,0.35049905140199994,1,1,0.22563643580899997,0,0
91,0.483811354717,0.498874323208,0.33793038038,0.689247692476,1,0,1,1,0.22829884825,0,1,0.24214882644000002,1,0
92,0.47038317611599995,0.519856856701,0.322134446021,0.74475180816,1,0,1,1,0.255474170524,0,1,0.27459494051100003,0,0
93,0.470609287853,0.540113573433,0.33929368687100003,0.744428351464,0,1,0,0,0.266634568799,0,0,0.24570806738099998,1,0
94,0.49459521105,0.559034878758,0.320544808112,0.723964728914,0,1,0,1,0.216454131494,1,0,0.23282706242600001,0,0
95,0.5332416168399999,0.605278530581,0.33379768850499997,0.725155737406,1,0,0,1,0.240820035106,1,1,0.254807359971,1,0
96,0.572293874956,0.584501854138,0.341007606771,0.71223199029,0,1,1,0,0.23597184846000002,1,1,0.252389152933,0,0
97,0.555098864242,0.599956338127,0.338879605822,0.7389868345460001,1,1,1,0,0.209797798529,0,0,0.26091913601399996,1,0
98,0.536137136237,0.604561724229,0.32264522706099996,0.7357693390360001,0,1,1,1,0.27689330880199997,0,0,0.29067144411699997,1,0
99,0.5814263712300001,0.611995849725,0.331205445928,0.728750924807,1,1,0,0,0.18672567039500002,1,0,0.205798444511,0,0
100,0.606539117065,0.670595567067,0.29494154897,0.6965527523010001,1,0,1,1,0.24046836725,0,0,0.22226012252500002,0,0
101,0.592518024014,0.684680912263,0.31636457442899996,0.674254397678,1,1,1,1,0.23826689628199998,1,1,0.23876858896699998,1,0
102,0.6287568708460001,0.676806082403,0.285279423944,0.642577976074,1,1,1,1,0.412041530012,1,1,0.25522875767700004,1,0
103,0.634468075596,0.659828264891,0.255119847129,0.6210838566610001,1,1,1,1,0.25525320840300003,1,1,0.394369088244,0,0
104,0.662932105304,0.688696934189,0.28758554097,0.607296692748,1,0,0,1,0.322403053624,1,1,0.21625882754200002,1,0
105,0.718769884491,0.653975244942,0.276661830778,0.6239328987,0,1,0,0,0.248245509443,0,0,0.208670348362,0,0
106,0.706452147912,0.649267549475,0.251557137215,0.608928135717,0,1,1,0,0.18736259672699998,1,1,0.233136167907,0,0
107,0.7125777485770001,0.644384953355,0.268516640821,0.5883036232500001,1,0,1,0,0.262489717866,1,1,0.292270702747,0,0
108,0.720673654971,0.666514526408,0.277492248112,0.598159400358,0,1,1,0,0.278951999602,1,1,0.22076500587900003,0,0
109,0.709106573141,0.6807317966159999,0.314896456105,0.629894159539,0,1,1,1,0.212731885709,0,0,0.237267435104,0,0
110,0.7110544325,0.664891722574,0.287185760143,0.6018768772559999,1,1,1,1,0.239906906123,1,0,0.237689738392,1,0
111,0.7098274499539999,0.6252992199040001,0.307843901921,0.6109098640439999,1,1,0,1,0.235007704997,0,1,0.240813092308,1,0
112,0.716851710539,0.5696971228050001,0.34371437030199997,0.6091056674759999,1,1,1,1,0.302135212517,1,0,0.217340696725,0,0
113,0.7426389321610001,0.5312218981100001,0.318051258323,0.6456564135499999,0,1,1,1,0.326672271216,0,1,0.215093342912,0,0
114,0.743415580657,0.513990349415,0.330328143874,0.633923237266,0,0,1,0,0.21244511792999998,0,0,0.295548609403,1,0
115,0.737432324498,0.504092417866,0.349327141599,0.627745087988,1,1,1,0,0.212912398481,0,0,0.213389942299,0,0
116,0.654590468567,0.448941329961,0.372913205693,0.664823455834,1,0,1,0,0.261332081617,1,1,0.2004630545,0,0
117,0.675087831083,0.484194468856,0.42665825649899997,0.6975237044499999,0,1,1,0,0.24579439957600002,1,0,0.25156748777800003,1,0
118,0.709522189541,0.480158942849,0.415493850826,0.7360929873370001,1,0,1,0,0.275604061236,1,0,0.23605999181999995,0,0
119,0.670422260248,0.487193072307,0.41606541658699997,0.738329026593,1,0,1,1,0.241433416295,0,1,0.201846784503,0,0
120,0.69374623408,0.483593202996,0.45928940078100006,0.7240264168100001,0,1,1,1,0.236491049072,0,0,0.258318001319,0,0
121,0.7027395429719999,0.40963527575099995,0.463811496805,0.704470703413,0,0,1,1,0.23170383831099997,1,1,0.221429703407,1,0
122,0.748626418566,0.3717288488,0.415741124341,0.731522399807,1,0,0,0,0.280123521448,0,0,0.277895788589,1,0
123,0.7428390394419999,0.406723065238,0.38149632731399996,0.731058636153,0,0,1,1,0.240586998552,1,1,0.270373115068,1,0
124,0.732012985634,0.464812983423,0.37451459612,0.731006423872,0,0,0,0,0.6810647234880001,1,1,0.27097502554499997,1,0
125,0.6812739372050001,0.466382474527,0.40343791958400005,0.719791329581,0,1,1,0,0.24170569475499998,1,1,0.447469425272,0,0
126,0.742800869824,0.47755784077,0.35104966844499996,0.741455885748,0,1,1,0,0.266224641805,1,1,0.229461616133,1,0
127,0.741452616402,0.48841805715099995,0.374883726195,0.7019904897879999,1,1,1,1,0.23735557846299998,1,1,0.195114382612,1,0
128,0.718967794719,0.521889191216,0.320072486778,0.7336761544239999,0,1,0,0,0.26184584873399996,0,0,0.246261981988,0,0
129,0.719470737781,0.484011374471,0.289699682562,0.717391288105,1,0,1,-1,-1.0,-1,-1,-1.0,0,1
130,0.717300847282,0.484992381553,0.283158915902,0.656132563463,0,0,1,1,0.324196408761,1,1,0.27403438496599997,1,0
131,0.68056729802,0.5277274477939999,0.284343898109,0.653926087878,0,1,1,0,0.0580985485021,1,1,0.290407315899,0,0
132,0.739587217066,0.526532488665,0.259516579283,0.645364369866,0,0,1,1,0.229147077157,1,1,0.43227767573200004,0,0
133,0.747374882924,0.549655241471,0.259119796374,0.610109452544,1,0,0,1,0.0403606029367,1,1,0.166030696227,0,0
134,0.742098155863,0.510746478265,0.256788334302,0.6217897657779999,0,0,1,0,0.0566828212513,0,0,0.179724310512,1,0
135,0.730175412364,0.538041515098,0.263597547889,0.600705186982,0,0,1,0,0.38507328426,0,0,0.17224540680999997,0,0
136,0.713379433382,0.5269171059300001,0.25896827274399997,0.611198903458,0,1,1,1,0.145562721396,0,1,0.204575606324,1,0
137,0.73329307095,0.505179508784,0.28319055787700004,0.604353289713,0,0,0,0,0.19397606545600002,1,1,0.16504059273399999,1,0
138,0.727018409412,0.49305685621399997,0.292964202509,0.618322157514,0,1,1,1,0.2717674102,0,1,0.234851341093,0,0
139,0.741773670196,0.481011600005,0.316696351942,0.640572941223,1,1,0,0,0.170817906987,1,1,0.163284366477,0,0
140,0.741334691172,0.507115872486,0.33308395378600003,0.632042905318,1,0,1,1,0.117884800855,0,0,0.179678125806,1,0
141,0.747640317149,0.5386242655100001,0.36599667472099995,0.646987233543,1,0,1,1,0.395589813405,0,1,0.209501069342,1,0
142,0.72821486992,0.554222029028,0.343419877799,0.642496793655,1,0,1,1,0.246807444492,0,0,0.18325245978799998,0,0
143,0.7080448768179999,0.579403700214,0.303916568248,0.65636651643,1,1,1,1,0.20727846811700001,1,0,0.207664246246,1,0
144,0.681761110544,0.565720721201,0.32252502272,0.697362281997,1,0,1,0,0.154329665222,1,0,0.157443661451,1,0
145,0.642318366412,0.579446326029,0.297421442328,0.709932250379,0,1,1,0,0.36001310075900006,1,0,0.237865119529,0,0
146,0.660845060515,0.601125500888,0.311668339083,0.713952755008,1,1,1,0,0.24849997811500002,0,0,0.249061741103,1,0
147,0.646853675987,0.630129916802,0.274591001738,0.739353210024,1,1,1,0,0.190346792804,0,0,0.23344406594500003,1,0
148,0.64205295647,0.60546963152,0.267537193973,0.708349457995,1,1,0,0,0.16943659187100002,1,1,0.257868530556,1,0
149,0.647112775954,0.609087340634,0.25223954575199997,0.730411135561,0,1,1,1,0.223234227395,0,0,0.30097938743299996,0,0
150,0.668142000199,0.606238088441,0.263735330187,0.7479244125900001,1,0,1,0,0.22905078355500003,1,1,0.21618758838799998,1,0
151,0.683679511433,0.597828928703,0.264681432329,0.6993056650570001,1,0,1,0,0.280168498711,1,1,0.24595710255800002,1,0
152,0.6660620525500001,0.558029818445,0.32734055071199997,0.730575332915,0,1,1,0,0.251339280998,1,1,0.29176629331500004,1,0
153,0.6412272527740001,0.548423392526,0.31863533085900003,0.713089759157,1,1,0,1,0.211821171612,0,0,0.316330821348,1,0
154,0.6134739620390001,0.578402304334,0.287393428944,0.7165055945350001,0,1,0,0,0.24695928048500002,0,1,0.19674473290600003,1,0
155,0.601157593309,0.5499838530910001,0.279864000164,0.689695188499,0,1,1,0,0.1167395409,1,1,0.6824840730689999,1,0
156,0.574995317489,0.522237985931,0.293859785305,0.6815676326100001,0,1,1,0,0.141331840129,1,1,0.20039392837099998,1,0
157,0.562275372944,0.534412443494,0.30902260285300004,0.7083266582800001,0,1,0,0,0.8270530686409999,0,0,0.230421533543,1,0
158,0.5527211367679999,0.553349752351,0.33430002725499997,0.677999960242,1,0,0,0,0.238417524832,0,1,0.188174904197,1,0
159,0.512657858153,0.553537229579,0.359045686836,0.63040175257,0,1,1,0,0.286851697288,1,1,0.183314341257,1,0
160,0.537747700539,0.533742719025,0.353101496189,0.6593247377570001,1,1,0,1,0.103279265029,0,0,0.21834408209399997,1,0
161,0.5221413252170001,0.541302203118,0.364800677318,0.63621025681,0,1,1,0,0.215736306461,1,1,0.17878944754999998,1,0
162,0.512881769176,0.5579091750399999,0.37189830820200004,0.6394252102800001,0,0,1,1,0.360180331654,1,1,0.20592945210799998,1,0
163,0.541196279727,0.552880673086,0.34123908338200004,0.628088394494,0,1,1,0,0.237865723251,1,1,0.26235478607900004,0,0
164,0.542666897769,0.525176164357,0.356080973428,0.602025848744,0,1,1,1,0.23845767232099999,0,0,0.222838185998,1,0
165,0.589889757587,0.512993181348,0.335424066239,0.6065880348330001,0,1,0,1,0.334878659496,1,1,0.19934888620900001,1,0
166,0.559460876941,0.501215288623,0.328494820306,0.635590180155,1,0,0,0,0.42067505135399996,0,1,0.191860624821,0,0
167,0.5208306582159999,0.465615634109,0.347672173406,0.6327074973210001,1,1,1,1,0.215940062516,1,1,0.266974464083,1,0
168,0.546012898274,0.46125167550800006,0.347510387887,0.607340582154,0,0,1,1,0.33903196253300005,1,1,0.19019314564599998,1,0
169,0.542534586974,0.441787936874,0.401859321285,0.646010238948,0,1,1,0,0.173139820423,1,1,0.365556472877,1,0
170,0.539053764375,0.44013597143399996,0.362410779282,0.673040816547,1,0,1,0,0.226911194055,1,1,0.262045378738,1,0
171,0.534241567532,0.424093712668,0.393504266563,0.681462772246,1,0,1,0,0.0967306963776,1,1,0.20913128983600002,1,0
172,0.538567500697,0.419698609013,0.39277103680500003,0.684374395402,1,0,1,0,0.20113892087699997,1,1,0.334903110223,1,0
173,0.527025977022,0.39471294633500004,0.38240974469899996,0.713576934998,0,1,1,0,0.164285940681,1,1,0.314012228382,0,0
174,0.49805272723800004,0.401083252797,0.430392141048,0.705256770868,0,1,1,1,0.21009392399399998,0,0,0.194522131681,0,0
175,0.48615556089699996,0.38058770322400004,0.446712784513,0.712536026409,0,1,1,0,0.16249983020300002,1,1,0.20823868738899998,0,0
176,0.471381355809,0.397499870598,0.46395933801000006,0.746894490992,0,0,1,0,0.237567182899,0,1,0.230075601043,0,0
177,0.492663438797,0.42006443187700004,0.455283846774,0.743134294207,0,0,1,1,0.270021749072,1,1,0.220033295249,1,0
178,0.495091473949,0.38427651916999994,0.440940214727,0.718187615303,0,0,1,1,0.19319424592999998,1,1,0.199041290032,0,0
179,0.464221079116,0.44106881140299997,0.44210630009199997,0.69451350403,1,0,1,0,0.217597580284,1,0,0.204696652515,1,0
180,0.488889604374,0.45957537983900004,0.486151394971,0.693740443523,1,1,1,1,0.210045022542,1,0,0.250470525554,1,0
181,0.47668601755199996,0.437222099154,0.45671877573700004,0.7040868590889999,1,0,1,0,0.20783751435699999,1,0,0.181573811762,0,0
182,0.5017544302100001,0.47695097121799995,0.439759060479,0.6823431841300001,0,0,1,1,0.434959709127,1,1,0.27005767051,1,0
183,0.503589694767,0.486873292946,0.47491781954400003,0.638355047133,0,1,0,0,0.182116557519,0,0,0.19585937511799997,0,0
184,0.498809441906,0.5365474663650001,0.46251994771899996,0.6468160394370001,0,0,1,1,0.262527148608,1,1,0.15366859002299998,1,0
185,0.44772551556900003,0.507837547079,0.45958295501900004,0.59055446533,1,1,1,1,0.0203076867347,1,1,0.23130809877500003,0,0
186,0.476099301293,0.482577602097,0.494473682918,0.6303184315129999,1,0,1,0,0.21798335841299998,1,0,0.18643648772799998,0,0
187,0.466317203024,0.470877434666,0.457359453169,0.635131670828,0,0,1,0,0.229079460333,0,1,0.18421962185899998,1,0
188,0.48191892663400004,0.473412817447,0.40655351798699996,0.6743243695960001,1,0,0,1,0.18689893850699998,1,1,0.189980635629,1,0
189,0.485969052984,0.5132062775289999,0.375457308197,0.638151956215,0,1,1,0,0.18996373142200002,1,1,0.0997260613049,1,0
190,0.46294153708499997,0.503514553098,0.363699739081,0.652884559096,0,0,0,1,0.129016522352,0,1,0.11609144571699999,1,0
191,0.46638400248899997,0.487821057605,0.363279513745,0.691436743144,1,0,1,1,0.19340132245299999,0,1,0.0712116844279,1,0
192,0.49479100608599996,0.49455910018999993,0.37155385408,0.701763674678,1,0,1,1,0.241750973879,0,1,0.25821144444899996,1,0
193,0.50664467177,0.49314678695,0.32959866968400003,0.697682209234,0,1,1,1,0.11958337169500001,0,1,0.24531444086999998,0,0
194,0.480146086999,0.48652786391400005,0.344782522637,0.7258474248800001,1,1,1,0,0.242752246221,0,1,0.264422230842,1,0
195,0.5083874017610001,0.453659207759,0.330269843818,0.728757820142,0,0,0,0,0.19248879719,1,1,0.126288002391,1,0
196,0.566642489098,0.478512000537,0.316381883444,0.724401381768,1,1,0,1,0.12892566224500002,0,1,0.289291940165,1,0
197,0.582866628025,0.461388474029,0.337392656047,0.735824766606,1,1,1,0,0.18534043108800002,0,1,0.25507692168400004,1,0
198,0.569984275149,0.45810320907700003,0.34575661832500004,0.7445201021019999,0,0,1,0,0.42848358707199996,0,1,0.274278892231,0,0
199,0.5773154262560001,0.43076094573299994,0.36537341245099997,0.7352755390700001,0,1,1,0,0.11429537383199999,1,1,0.245355192082,1,0
200,0.57970783471,0.428854386237,0.356810420801,0.743723535943,0,0,1,1,0.216062316147,1,1,0.195159963596,1,0
201,0.543825356936,0.467629218551,0.35316733719000004,0.731297686371,0,1,0,0,0.0671368652056,0,1,0.12619201065,0,0
202,0.572206525227,0.442844605616,0.34375595042400003,0.7220142130249999,1,0,0,0,0.0755177290403,0,1,0.265232727146,1,0
203,0.555426701919,0.433206683235,0.315510079645,0.739214282895,0,0,1,1,0.273178307678,1,1,0.236356419146,1,0
204,0.557408858214,0.43670683473399996,0.353848746716,0.72599558073,1,0,0,0,0.6790181071220001,0,1,0.159633661708,0,0
205,0.579214215188,0.44522453862899997,0.39978638227799995,0.7059888743230001,1,1,0,1,0.210301302379,0,0,0.194721359822,0,0
206,0.598228275374,0.431527346539,0.432473299639,0.7319057602689999,1,1,0,1,0.277403755451,0,1,0.131169695588,1,0
207,0.595118384907,0.382637025309,0.449672858442,0.7036052288629999,0,0,0,1,0.26716252337499996,0,1,0.19027193132,0,0
208,0.640641556958,0.371847241439,0.48233592188,0.7211704144750001,1,1,1,1,0.5420949442840001,1,1,0.30814586518599996,1,0
209,0.609648325733,0.35620945473899995,0.46782153422399997,0.744501812084,0,0,1,1,0.334889526486,1,1,0.295358738946,0,0
210,0.604358667048,0.354065198307,0.443845011413,0.7411204819480001,1,0,0,0,0.22339391176999998,0,1,0.189171346767,0,0
211,0.593426923506,0.36440588768,0.46913884931199995,0.724904826364,1,1,1,1,0.341157666435,1,1,0.288272254312,1,0
212,0.613592199974,0.34777436336499995,0.488520144404,0.743676136673,0,1,0,0,0.22966476846500003,0,1,0.25678515206999997,0,0
213,0.615392676161,0.355529350669,0.5176351765030001,0.723924380502,1,1,0,1,0.19815442294,0,1,0.219894439271,1,0
214,0.616316079841,0.34113994983900003,0.497355486078,0.687678173497,0,0,1,1,0.233234574535,1,1,0.319004100779,1,0
215,0.621367690574,0.375025269859,0.49012601278800005,0.733843307948,1,0,1,0,0.348394175898,1,1,0.578251531566,1,0
216,0.620900846557,0.35631963783200005,0.462498318327,0.748145522907,1,0,0,1,0.311681560983,1,1,0.162800181721,0,0
217,0.63320937435,0.328489484068,0.44358092841499996,0.734786406794,0,1,0,1,0.301462062886,1,1,0.10991326029300001,1,0
218,0.63265634159,0.261676367165,0.487386155621,0.730148420267,0,0,0,1,0.221826348526,0,1,0.262332750239,0,0
219,0.636702643097,0.27162823179699996,0.522644287225,0.727241043145,0,1,1,0,0.19032868115499998,1,1,0.26813542080200004,0,0
220,0.629647559334,0.290912966383,0.500026958159,0.705891221348,0,1,1,1,0.30019515302099997,0,1,0.268694467042,0,0
221,0.653096006056,0.321349581142,0.5547770024759999,0.71297062157,0,0,0,1,0.335292812543,0,1,0.48248799725900005,0,0
222,0.656940758504,0.305045377522,0.574867989511,0.73113319685,0,1,1,1,0.247930064886,0,1,0.261646922453,1,0
223,0.6781056766269999,0.311075562461,0.551057455785,0.681713669767,0,1,0,1,0.35769088546300004,1,1,0.326201368335,0,0
224,0.683160609587,0.307432668801,0.560517511183,0.6768915605220001,1,0,1,0,0.20619539149099997,1,1,0.516003906079,0,0
225,0.665261246724,0.32259590397599996,0.5646089538669999,0.6968570167939999,0,0,1,1,0.142789827894,1,0,0.428498076392,0,0
226,0.644691183538,0.386975051074,0.5531043155300001,0.689112893527,1,1,0,0,0.276631897331,1,1,0.250368194736,0,0
227,0.630934460609,0.416631557534,0.529577470776,0.662824818702,1,0,1,1,0.0318671450159,0,1,0.194861423244,0,0
228,0.618795662464,0.401309644827,0.537308856287,0.695734686791,0,0,1,0,0.146860421065,0,1,0.309949483591,1,0
229,0.573159174549,0.433407898482,0.535925241876,0.6954342523270001,0,0,1,0,0.237991901074,0,1,0.358467875217,1,0
230,0.605760545775,0.434839594582,0.580364940921,0.673111934278,1,0,1,1,0.21715203371199998,0,1,0.316252639395,1,0
231,0.6276215922380001,0.417963845377,0.573847329743,0.662286604687,0,0,0,0,0.18834334253600002,1,1,0.335405104768,0,0
232,0.6348712673879999,0.463255997989,0.558446999963,0.670858061149,0,1,1,1,0.30079223372499997,0,1,0.21323961561000002,1,0
233,0.617909527429,0.510534001075,0.6099405353790001,0.689190334129,1,1,1,0,0.202693202245,0,1,0.864348576802,1,0
234,0.58901175007,0.5184455845279999,0.607719485119,0.672427150441,0,0,1,0,0.056563888087999996,0,1,1.6196215570899999,1,0
235,0.588484679006,0.5641411443850001,0.565994965951,0.684548974824,1,0,0,1,0.217436084745,1,1,0.297875050751,0,0
236,0.603188886647,0.56540055085,0.558026918683,0.705712257874,0,0,1,0,0.183286871921,0,1,0.290364753523,1,0
237,0.591464075966,0.575864985139,0.588462256319,0.7457047504600001,1,0,0,1,0.20242786658300002,1,1,0.23216538350699997,1,0
238,0.606199858512,0.598944923455,0.614675687845,0.7479184178180001,1,0,1,1,0.25615879086599996,0,1,0.435286926257,0,0
239,0.56886216799,0.609874358126,0.576178527913,0.749966450069,0,0,1,0,0.35800542443899996,0,1,0.203860196179,1,0
240,0.554941657927,0.59177596933,0.587204048128,0.732152659243,1,1,1,0,0.43300666961499995,0,1,0.303038380093,1,0
241,0.584042351265,0.597577940847,0.568416524868,0.736202344779,0,1,1,1,0.311077537479,0,1,0.586214318165,0,0
242,0.551707491485,0.563475607794,0.565574908957,0.731227089158,0,1,1,0,0.293015393393,1,1,0.285488493821,1,0
243,0.5681089865569999,0.512550620649,0.5558904645620001,0.7372991039069999,0,1,1,0,0.184195774855,1,1,0.173964202326,1,0
244,0.5800590469820001,0.5044158589769999,0.54250144352,0.725282449719,0,1,1,0,0.0672527797606,1,1,0.10497119493200001,0,0
245,0.561272517469,0.479085204098,0.533603129617,0.7040687654600001,0,1,1,0,0.406252745047,1,1,0.204130361613,1,0
246,0.5700008255969999,0.47213683240500004,0.541656948666,0.7379978187139999,0,0,1,1,0.161440902443,1,1,0.385862650308,1,0
247,0.57631764384,0.43257506629799997,0.583383183983,0.735123974132,0,0,0,1,0.255312976846,0,1,0.234468581571,1,0
248,0.568830429906,0.43301111363899997,0.553331120184,0.730222052763,1,0,1,0,0.26108274458,1,1,0.20020949141,1,0
249,0.5646917680960001,0.42349108515199996,0.556882799609,0.725833194473,1,0,1,0,0.221546825405,1,1,0.213969515075,1,0
250,0.614733184151,0.39704307880999995,0.578716935453,0.730551961639,1,1,1,1,0.25933678159,1,1,0.187772523723,1,0
251,0.5789295170090001,0.381843728454,0.597760847017,0.7023682369419999,0,0,0,0,0.24639480075,1,1,0.198851117715,0,0
