trial,rwrd_prob0,rwrd_prob1,rwrd_prob2,rwrd_prob3,symbol0,symbol1,common,choice1,rt1,final_state,choice2,rt2,reward,slow
1,0.458963100989,0.5151436417040001,0.644619383183,0.364540732459,0,1,0,1,0.224441301068,1,1,0.859604574518,0,0
2,0.483000804325,0.525397140221,0.661003704455,0.329377901084,0,0,0,1,0.212111799555,0,1,0.444577766267,0,0
3,0.498637469912,0.494071284296,0.671710722139,0.328712023685,0,1,0,0,0.114191197379,0,0,0.365347776766,0,0
4,0.501294925721,0.5116420262420001,0.699795590358,0.348750816128,0,1,1,0,0.251009573211,1,0,0.419427635833,1,0
5,0.479499217135,0.546308218988,0.659845315492,0.34472592545599995,1,0,1,0,0.05701907699450001,1,0,0.21749035404,1,0
6,0.474964447098,0.516795600939,0.660790962703,0.32291218526,0,0,1,1,0.238983441732,1,0,0.252872053915,0,0
7,0.469986816993,0.4898131971800001,0.689358314788,0.30461955684500003,0,1,0,1,0.218336469667,1,1,0.245587852641,0,0
8,0.49149133323,0.509688048758,0.660181530338,0.35119009887,0,0,1,0,0.2884566042,0,1,0.222290845228,1,0
9,0.465392779932,0.540979218532,0.69509500787,0.374249886688,0,0,0,0,0.19050823083700005,1,1,0.281710922468,0,0
10,0.440258066256,0.56832264398,0.724620103891,0.356790981589,1,1,1,0,0.148579473591,0,0,0.4317215177800001,1,0
11,0.419872350845,0.587741083073,0.745173218788,0.383490489172,0,1,1,0,0.0400499760626,1,0,0.17646657526299994,1,0
12,0.40670653279,0.5507064881139999,0.741685186816,0.376965593767,1,0,1,1,0.037943591889,0,0,0.1824289284,0,0
13,0.41889420544,0.5308611186869999,0.702398282976,0.390081432573,0,1,0,0,0.0705536065416,0,1,0.249720929755,0,0
14,0.353449380035,0.544978362915,0.705760818797,0.390737909893,0,0,1,1,0.0632220131333,1,0,0.338378633573,0,0
15,0.355069797886,0.529160422417,0.683426871015,0.446223717234,1,1,0,0,0.16797161060199994,1,1,0.288399552522,0,0
16,0.349030534146,0.500153044632,0.708162636647,0.42614931375,0,1,0,1,0.835371496982,1,0,0.404088884703,1,0
17,0.354172267765,0.483394999413,0.7064627346369999,0.436171450293,0,0,0,0,0.233654996127,1,0,0.244858858979,1,0
18,0.35582730660800005,0.483638168489,0.716670816913,0.467672526792,1,0,0,1,0.183749569094,1,0,0.285593757037,1,0
19,0.35323460904200005,0.502583498811,0.684273255924,0.472007138307,1,1,1,0,0.520471892842,0,0,0.209113718785,1,0
20,0.365768273409,0.537433084466,0.697696565105,0.4727666646580001,1,0,1,1,0.233269519975,0,0,0.284473853729,1,0
21,0.367006624409,0.529395083794,0.702273341473,0.479056500849,1,0,0,0,0.218005328446,0,1,0.68251556243,1,0
22,0.371352127585,0.526596307875,0.688825191295,0.489417755053,0,1,1,1,0.157550774484,0,1,0.123416665007,0,0
23,0.357308505731,0.5007772114150001,0.713214583188,0.492278769285,1,0,1,1,0.232963735056,0,0,0.252057633666,0,0
24,0.31147318140299995,0.476887962739,0.7486465598370001,0.508167218712,1,0,1,0,0.436304367381,1,0,0.204920269526,0,0
25,0.27582000210700003,0.466048012118,0.7179124755040001,0.49400233226,1,1,1,1,0.0477175404626,1,1,0.237548093961,0,0
26,0.314037700101,0.470674380649,0.7376806521879999,0.472598852415,1,0,1,0,0.0750440867596,1,0,0.23292841735,1,0
27,0.32238726204,0.452431218567,0.748530762335,0.501271780729,0,0,1,1,0.0197543698869,1,0,0.23611425549400006,1,0
28,0.351787351435,0.441617194906,0.7456197582340001,0.467200429172,1,1,1,1,0.223021650055,1,0,0.148927217152,1,0
29,0.325154877851,0.444406085659,0.739984040994,0.486516043392,1,0,1,1,0.0477697623692,0,1,0.136112625446,0,0
30,0.360181197236,0.428505381905,0.738541762781,0.480682707562,0,1,1,0,0.0189622873318,1,0,0.23544623769900005,1,0
31,0.363176125953,0.484371379473,0.734558818429,0.488728655236,1,0,1,0,0.046277061059800007,1,0,0.190742776624,1,0
32,0.3906394278900001,0.502410226424,0.742081403231,0.4646720684440001,0,1,1,0,0.254901161741,1,0,0.0474153778723,1,0
33,0.384233877587,0.5179949361680001,0.719149631391,0.43122510212,1,0,0,1,0.132817815579,1,0,0.245373229662,1,0
34,0.375449044875,0.534926825923,0.70676452013,0.403121215073,1,0,1,1,0.0402298850577,0,0,0.17399252472100002,1,0
35,0.392449709343,0.552769979562,0.7132333771070001,0.38389612787,0,0,0,0,0.203551331115,1,0,0.353343379259,0,0
36,0.42222206217,0.58379736183,0.7107568987630001,0.389239566402,0,1,0,1,0.209607261079,1,1,0.210095068018,1,0
37,0.393126017536,0.555497968098,0.709974225741,0.403827044265,1,1,1,1,0.170328237321,1,1,0.021453242075,0,0
38,0.387604367901,0.513620756933,0.7119775396410001,0.384669439199,0,0,1,0,0.250930787561,0,0,0.0514775177148,1,0
39,0.371068033002,0.516276671701,0.6803542805439999,0.389419872144,0,0,1,0,0.00891243805063,0,0,0.022649214287,0,0
40,0.375054817748,0.52142344613,0.711013514013,0.39966812498,0,1,1,0,0.502748441946,1,1,0.0927234659894,1,0
41,0.35403398646799994,0.547972890403,0.7044713078389999,0.432049272708,1,1,1,1,0.010274131803299998,1,1,0.08268538927680001,1,0
42,0.362645351722,0.542902194,0.698922799864,0.391359986355,1,0,1,0,0.0614543166989,1,1,0.125909732775,1,0
43,0.390460661386,0.5094242321670001,0.7195908265459999,0.423269137804,1,1,1,1,0.195398978383,1,1,0.0785450675048,1,0
44,0.383809881128,0.5179373073129999,0.7203169364759999,0.403747714435,0,1,0,0,0.137362328868,0,0,0.425885040567,1,0
45,0.330643952125,0.5014585938130001,0.740750640236,0.385885458584,1,0,1,1,0.0661213854441,0,0,0.303937833593,1,0
46,0.354602145106,0.517553775116,0.743758431918,0.390821524198,1,0,1,1,0.634745800061,0,0,0.168816518785,0,0
47,0.366998221512,0.515665348814,0.730264574147,0.396470770958,1,1,1,1,0.00639341025953,1,0,0.228152376882,1,0
48,0.366872119149,0.49647926204,0.697338735626,0.35414067014600004,1,0,0,0,0.0363440318815,0,1,0.252678561187,1,0
49,0.37458855729,0.484141082509,0.7278756995710001,0.3487461608,1,1,1,0,0.17293903077300002,0,1,0.07746802842119999,0,0
50,0.337281748082,0.468644066372,0.736542548997,0.391699266734,0,0,1,1,0.0242913366574,1,1,0.222061431073,1,0
51,0.357537810795,0.512514765655,0.7475956934610001,0.381343720858,1,1,1,1,0.115599075823,1,1,0.235995624227,1,0
52,0.35341398287000003,0.482372936905,0.746334313407,0.38228375834,1,0,0,0,0.158836399333,0,0,0.231466505835,0,0
53,0.367244269992,0.45206275251,0.6975787792389999,0.380796638161,0,0,1,0,0.178288606629,0,1,0.202736609005,0,0
54,0.360879657396,0.463880418832,0.729960258364,0.371391720218,0,0,1,1,0.133516321308,1,1,0.13409710135199998,1,0
55,0.369172058958,0.464466131654,0.7081911060799999,0.346080897404,1,0,1,0,0.294230294381,1,1,0.21475670327,0,0
56,0.352948849054,0.476117009747,0.699658696829,0.313085418061,1,1,0,0,0.196305164294,1,1,0.378154821954,1,0
57,0.34556336974600005,0.4878112631600001,0.68013000267,0.320885408638,1,1,1,1,0.0983939198004,1,1,0.122842827759,0,0
58,0.323827582625,0.477441857457,0.6771344781399999,0.35036536338200003,0,1,1,1,0.197742021368,0,1,0.203500920374,1,0
59,0.305403353252,0.451084976134,0.665676984499,0.330191920404,1,0,0,1,0.0943716255742,1,0,0.25751829426999995,1,0
60,0.28400538347300003,0.459234897014,0.669679901321,0.340729962378,0,0,1,1,0.0417639412872,1,0,0.231580005469,1,0
61,0.317481521358,0.437479243924,0.665898063643,0.359447647765,1,0,1,0,0.0183540379608,1,0,0.189360254481,1,0
62,0.329031670887,0.424023154682,0.653358876751,0.331426289657,1,1,1,1,0.173626367655,1,0,0.142120257692,1,0
63,0.314192706222,0.432293447226,0.618699321741,0.300699908286,1,0,1,0,0.219650771284,1,0,0.052131649916199986,1,0
64,0.287627710805,0.394964649639,0.595523046835,0.32845154468000004,0,0,1,1,0.5375780385450001,1,0,0.250208132973,0,0
65,0.293579559838,0.34928944539800005,0.570549823865,0.372154198563,0,0,0,0,0.175807009568,1,1,0.360253575088,1,0
66,0.258808439833,0.359174644252,0.598841917304,0.402017236274,0,0,1,1,0.0779537223352,1,1,0.134296631295,1,0
67,0.283311706018,0.369409045116,0.574299030153,0.384539703437,0,1,1,0,0.0704539925005,1,1,0.22032724118,0,0
68,0.262162334264,0.390130351959,0.573362858827,0.410317052357,1,0,0,1,0.07383181406839999,1,0,0.284935700646,0,0
69,0.29132851765900003,0.425424884247,0.623035529293,0.452296974589,0,1,1,0,0.418560993677,1,1,0.197755906961,0,0
70,0.257093044112,0.442995238822,0.605688324345,0.4036208742,1,0,0,1,0.232486795102,1,1,0.390450515065,0,0
71,0.258606702525,0.4494673432370001,0.630703448694,0.396953545074,1,0,1,1,0.22529405763,0,0,0.108569041284,1,0
72,0.309139364877,0.414694254733,0.612710770889,0.421229845496,0,0,1,0,0.159348355131,0,0,0.183832580795,1,0
73,0.292795740717,0.410200846169,0.6359127184260001,0.440917272855,0,0,0,0,0.07207619206289999,1,0,0.323186284897,1,0
74,0.257264051664,0.36993015847,0.644222460413,0.490820290024,0,0,1,1,0.350070907085,1,0,0.0652921740189,1,0
75,0.276041137847,0.349159427349,0.604873807919,0.49827441651,0,1,0,0,0.465455963651,0,1,0.084738344101,0,0
76,0.279651207856,0.328390828941,0.609725046256,0.543949685601,0,0,0,0,0.0236716165787,1,0,0.0666994487419,0,0
77,0.28602438154300003,0.305468972796,0.571298552592,0.514239721719,1,0,1,0,0.106850850009,1,1,0.152683572075,1,0
78,0.264330001381,0.276902127388,0.57055941492,0.524463479838,1,0,0,0,0.0674951536257,0,1,0.361314011832,0,0
79,0.27650147631,0.3001811814,0.573135809404,0.51240089403,0,1,0,0,0.10824906891,0,0,0.17535150172699998,0,0
80,0.26637636888,0.300055033956,0.593363698281,0.519518695142,1,1,1,1,0.375393399996,1,1,0.208056300648,1,0
81,0.286886942155,0.297795126937,0.541184369602,0.476339121608,0,0,1,1,0.0189266677653,1,1,0.206106884055,1,0
82,0.291492076607,0.288769330532,0.533033733876,0.501699686642,1,0,1,0,0.00628745714312,1,0,0.254780417449,1,0
83,0.280021606489,0.276182259854,0.568896961403,0.475590787468,1,0,1,0,0.0281859437946,1,0,0.00203816364865,0,0
84,0.253872416772,0.281054686403,0.57954630085,0.503894098679,0,0,1,1,0.132816004415,1,1,0.199931719103,0,0
85,0.287395278311,0.293689751816,0.612063101028,0.481740074576,0,0,1,0,0.235028160587,0,0,0.0461910307517,1,0
86,0.368598114891,0.320885035608,0.628921454713,0.518934379503,0,1,0,1,0.16908336367,1,0,0.19355762793,1,0
87,0.360918305945,0.3046047961,0.6358283795149999,0.533292052505,0,0,0,1,0.0470404668458,0,0,0.204824277813,1,0
88,0.369774330092,0.276353402322,0.646574744297,0.487991497158,0,0,0,0,0.21045126368,1,0,0.218942606012,0,0
89,0.379114018897,0.280566151332,0.6684436986069999,0.476915366298,1,1,0,0,0.152366618308,1,1,0.16623802443,0,0
90,0.3866158824800001,0.250848977795,0.648180057323,0.511652416187,0,0,1,0,0.16902057663800002,0,0,0.00955147721561,0,0
91,0.409620275911,0.2632824027,0.6550209220840001,0.521049109741,1,0,0,1,0.086968793034,1,1,0.0954272325471,0,0
92,0.421839011112,0.25051054531100003,0.713475227692,0.5268219853239999,1,0,1,1,0.180888834956,0,1,0.005431380113350001,1,0
93,0.395866650068,0.279636241182,0.6517599355579999,0.5431492954129999,0,0,1,0,0.474912656598,0,1,0.144772707926,0,0
94,0.417628487232,0.256394649413,0.640793340596,0.532238680978,0,1,0,0,0.323658395079,0,0,0.132214999701,1,0
95,0.381823587645,0.276008155778,0.644340229753,0.547308219279,0,1,1,1,0.143017085921,0,0,0.140811389567,1,0
96,0.3701818655,0.274212099406,0.629595177972,0.568439186255,0,1,1,1,0.0903493313481,0,0,0.045502486426800014,1,0
97,0.328895170451,0.257625309832,0.6222080282460001,0.557616211374,1,1,1,0,0.205537574718,0,0,0.139448186511,1,0
98,0.349448683557,0.260085595167,0.6592972279420001,0.530361833774,1,1,1,0,0.219639602437,0,0,0.00409564638358,0,0
99,0.343134898926,0.280681270371,0.658118092761,0.534234726371,0,1,1,0,0.401523068499,1,0,0.159433479856,1,0
100,0.31667373884100003,0.278079888654,0.7192261552120001,0.543789053177,0,1,1,0,0.554296595071,1,0,0.0642595084619,1,0
101,0.363930724114,0.268985689808,0.730670236191,0.569803727816,1,1,0,1,0.0991162725268,0,1,0.187536713811,0,0
102,0.371526788342,0.275904222558,0.700762663521,0.599164439539,0,1,1,0,0.177039205068,1,0,0.0522572239802,1,0
103,0.394920791926,0.301792263769,0.7085608861280001,0.598426705242,0,1,0,1,0.140406292468,1,0,0.247538174817,0,0
104,0.418608068993,0.302730458554,0.708361005827,0.585617271219,0,1,1,1,0.165035713143,0,1,0.0935297359988,0,0
105,0.39913211859,0.328544737505,0.727747689627,0.583046315475,1,1,0,1,0.0910242919404,0,0,0.0915676412542,1,0
106,0.3678315169120001,0.310302108243,0.696972779341,0.576054715536,1,1,0,0,0.0116243548482,1,1,0.220045303258,1,0
107,0.330180847634,0.295761348136,0.7088158125499999,0.565351048421,1,1,1,1,0.188296195408,1,1,0.0794053705854,1,0
108,0.350843509894,0.263706087242,0.685343469209,0.548365960726,0,0,1,1,0.13814505374000002,1,1,0.12534947925999998,0,0
109,0.355581714078,0.253989836738,0.712681884648,0.5453874019520001,1,1,0,0,0.008186462995130001,1,0,0.256561395755,1,0
110,0.346976991139,0.273933843141,0.723032751659,0.525743333495,1,0,1,0,0.0461683911967,1,0,0.0918782559456,1,0
111,0.34268241517399994,0.333136802786,0.743054510173,0.5197464317939999,0,0,1,1,0.35616306033600004,1,0,0.0739610104611,1,0
112,0.327304969288,0.306685819077,0.725857779751,0.522533810717,0,1,0,1,0.226022749432,1,0,0.0240100024571,1,0
113,0.35925544567100004,0.31111330674800003,0.727731973347,0.515643106809,1,0,1,1,0.07207287159510001,0,0,0.155166074718,0,0
114,0.328289814026,0.34671281889,0.7099379596780001,0.545910938265,0,0,1,0,0.0194087393511,0,1,0.0197706703661,1,0
115,0.337104062598,0.355217226514,0.699082286791,0.562714263364,0,0,1,0,0.41722224134,0,1,0.164493571272,1,0
116,0.369843088807,0.367344715107,0.6708832316960001,0.5954640319650001,1,1,1,0,0.0980027082942,0,1,0.034448044637000005,1,0
117,0.413900162471,0.339382861308,0.639005036607,0.637546532095,1,0,1,0,0.429151777386,1,1,0.0511708272134,0,0
118,0.424244463298,0.348568594114,0.618427863237,0.627913794024,1,1,1,1,0.227301129623,1,0,0.550530882465,1,0
119,0.420568135536,0.348175236517,0.625761518076,0.6110587971220001,1,1,1,1,1.40951151086,1,0,0.213151106048,0,0
120,0.378228611554,0.380833368379,0.601393053772,0.582087534687,0,1,1,1,0.418659400275,0,0,0.171213594841,0,0
121,0.367188320633,0.38199838646,0.581982222022,0.6206346321949999,0,1,1,0,0.4407426256930001,1,1,0.230689516316,1,0
122,0.374436813558,0.347445404281,0.619502348674,0.650195618532,0,0,1,1,0.12682588009,1,1,0.23670439322,1,0
123,0.382215516733,0.342981077283,0.626566852938,0.695855516677,0,0,1,1,0.16756138187,1,1,0.117389411812,1,0
124,0.380566829987,0.334547457328,0.6576242370009999,0.7047576576719999,0,1,1,0,0.0321868059091,1,1,0.0913113614947,0,0
125,0.389574915035,0.327487008417,0.618256157092,0.6816459865600001,1,0,1,1,0.155463709397,0,0,0.622518327474,1,0
126,0.383741231589,0.32917726210000003,0.6313373259080001,0.652653947237,0,0,1,0,0.0416474230451,0,0,0.0233691521275,0,0
127,0.399684257534,0.283398246372,0.6138672768919999,0.6508178816210001,1,0,0,1,0.0155268103645,1,1,0.151950352362,0,0
128,0.378682394319,0.30477574999400003,0.619430845381,0.644645507773,1,1,0,1,0.49597197042,0,0,0.155367415825,0,0
129,0.3974157190380001,0.298160032372,0.629661679449,0.6840352888500001,0,1,1,0,0.390090998936,1,0,0.0494982169089,1,0
130,0.40904642454,0.301757527403,0.623469166899,0.687206126429,0,1,0,0,0.17219252918900002,0,1,0.476744347507,0,0
131,0.432784699839,0.278509089675,0.612237486775,0.6975103502590001,1,0,1,0,0.130452434899,1,0,0.402929135779,1,0
132,0.446240939029,0.29819567823800003,0.607558103223,0.710236613515,1,0,1,0,0.181762419909,1,0,0.0623031490713,0,0
133,0.394933812684,0.310257969595,0.6213560517979999,0.6936413983740001,0,0,0,0,0.163757634813,1,0,0.180296282344,1,0
134,0.412795948185,0.288722442881,0.642324461876,0.7112445581550001,1,1,1,1,0.345765467495,1,0,0.101005015114,1,0
135,0.405584568504,0.322983568386,0.665565200537,0.688007898354,0,0,1,1,0.154399952185,1,0,0.0695592772968,1,0
136,0.373051478945,0.28548263824000003,0.6817356588369999,0.6757214947769999,0,1,1,1,0.117632107839,0,1,0.08608464295679999,1,0
137,0.361382609405,0.26091797756900004,0.700191997208,0.654230721518,0,1,1,1,0.0569840611497,0,1,0.108088177141,0,0
138,0.368791670691,0.262169957805,0.6874325323899999,0.663565970973,1,1,1,1,0.0202518363703,1,0,0.183333605009,1,0
139,0.429755562712,0.257047662326,0.697529125259,0.63795682466,0,1,1,0,0.039571828666300005,1,0,0.336002385907,1,0
140,0.453267615364,0.295640208587,0.703800691366,0.655248579289,1,0,1,0,0.232149314807,1,0,0.0780795982591,1,0
141,0.458658516722,0.300334494143,0.7126061122059999,0.664168770564,1,1,1,1,0.0888795714545,1,0,0.201306091006,0,0
142,0.411478877989,0.302866948091,0.7259574656919999,0.673413139746,1,1,1,0,0.044182751315900014,0,1,0.137952164733,1,0
143,0.36820484744,0.283877450119,0.7489371651510001,0.654653006299,0,0,1,0,0.399379253595,0,1,0.453344707446,0,0
144,0.378427338392,0.310697385851,0.743276638786,0.620409831659,1,1,0,1,0.101647072887,0,0,0.17410270388799998,1,0
145,0.397446958894,0.326708294846,0.723441594508,0.6402047291480001,1,0,1,1,0.187643572509,0,0,0.246796804865,0,0
146,0.379866236885,0.32390225094700004,0.727838329858,0.631967723148,1,0,1,1,0.620397453986,0,1,0.188969948557,0,0
147,0.369489921485,0.327289603807,0.723702995452,0.613570642657,1,0,1,0,0.383914626541,1,0,0.0431078252568,1,0
148,0.39291842662,0.365034935058,0.729544195499,0.605783569454,1,1,1,1,0.19789989453,1,0,0.259707388283,1,0
149,0.356495071235,0.370406499554,0.7340780373029999,0.57272531867,0,0,1,1,0.137268450181,1,0,0.0017450568793699998,1,0
150,0.369332902319,0.36701289819,0.728497545054,0.617516195381,1,0,1,0,0.124486459434,1,1,0.204854162025,0,0
151,0.349339551379,0.382131882266,0.71360434552,0.626174447829,0,0,0,0,0.186516122683,1,0,0.240242200975,1,0
152,0.385468617085,0.404181619238,0.729405129053,0.590852528686,0,0,1,0,0.101951650363,0,0,0.118298616331,1,0
153,0.414885436495,0.400113422737,0.7338648043780001,0.602871019112,0,1,1,1,0.179800023303,0,0,0.238950538912,1,0
154,0.425864743085,0.383490177382,0.7330126454960001,0.585515060721,1,1,1,0,0.32977590463100004,0,0,0.0931032067865,1,0
155,0.438134787761,0.36570751939,0.7477419634620001,0.589422843825,1,1,1,1,0.0266256256818,1,0,0.0323030222899,1,0
156,0.408211139587,0.362829847694,0.721530678711,0.5582411080049999,0,0,1,1,0.411003306582,1,0,0.0436729085432,1,0
157,0.378404831028,0.331574069229,0.692299293952,0.563120178976,0,1,1,0,0.190404088885,1,0,0.153609378933,1,0
158,0.341158906559,0.299978143497,0.687374436671,0.513445184468,0,1,0,1,0.0498429418631,1,1,1.1089324816,1,0
159,0.348765645205,0.326125035505,0.6794287449609999,0.5332469184440001,1,0,0,0,0.160120514878,0,1,0.334023085102,1,0
160,0.33876402669600003,0.324208863794,0.654208372641,0.550013854955,1,0,0,1,0.110242859031,1,1,0.388059476223,1,0
161,0.319637894954,0.305540480154,0.6456688501100001,0.5323879703509999,1,0,1,1,0.0576499659201,0,1,0.186018958061,1,0
162,0.32025243844900003,0.311738698354,0.628880906368,0.5319018884800001,1,1,1,0,0.0208923848386,0,1,0.197330585193,0,0
163,0.303258527684,0.320476478665,0.586672283407,0.511503684692,0,0,0,1,0.194827556021,0,0,0.214035557987,1,0
164,0.363545693838,0.301407018099,0.592171407069,0.47226845742,0,0,1,0,0.0781967202229,0,0,0.134572230141,1,0
165,0.333939549559,0.257132903882,0.593012635448,0.451499898894,1,1,1,0,0.158832777004,0,0,0.0952998473185,0,0
166,0.299716018922,0.269267730515,0.608475425795,0.48058566707,0,0,0,1,0.0527863858397,0,1,0.125293333164,1,0
167,0.279548331468,0.300473774922,0.5268449685909999,0.453118769537,1,1,1,0,0.136051045857,0,1,0.008504624204760001,0,0
168,0.278452927302,0.26787638371100003,0.511315682486,0.4663267709790001,0,1,1,0,0.088689701055,1,0,0.0331403839546,0,0
169,0.290938566592,0.28608884261100004,0.489633473306,0.450531678429,1,1,0,1,0.135533958426,0,1,0.192030212636,0,0
170,0.282764983668,0.263974368405,0.526184044357,0.435260574469,1,1,1,1,0.202875464941,1,1,0.07264882186789999,1,0
171,0.286292817097,0.271180662022,0.534124085916,0.378436982689,0,1,1,0,0.0328439567174,1,1,0.238591324643,0,0
172,0.263971914463,0.273545587959,0.551292913567,0.402092000805,1,0,1,1,0.172134270068,0,0,0.08730808449489999,0,0
173,0.263664416826,0.325101343345,0.5246019362259999,0.382793224136,0,1,0,0,0.481946313465,0,1,0.13068033975,0,0
174,0.25378222361,0.355784877548,0.515451212946,0.382453683235,0,1,0,0,0.224182304562,0,0,0.115251030402,1,0
175,0.256266434548,0.3373924508,0.521614601398,0.388694997473,1,0,1,1,0.43805334845,0,0,0.00677767896923,1,0
176,0.267579041842,0.355979513008,0.5678661992890001,0.395720581197,0,0,0,0,0.0415459978394,1,1,0.185990885014,0,0
177,0.267241219742,0.304997427454,0.5863434833110001,0.367602431223,0,0,1,1,0.0181723178021,1,0,0.18657649483,0,0
178,0.250302230466,0.264787668279,0.561107691674,0.413300355206,1,0,1,0,0.0694983014291,1,0,0.13927914450200002,0,0
179,0.260694120748,0.250277866345,0.593751398321,0.4002871981490001,0,1,1,1,0.091411881117,0,1,0.123824176992,1,0
180,0.281685581768,0.272507633032,0.581542763529,0.386848093934,0,1,1,1,0.04940071589319999,0,1,0.055103166942,1,0
181,0.279176470733,0.29935918393800004,0.575019054351,0.373599794227,0,0,1,0,0.020637312522,0,1,0.12766958083,1,0
182,0.26511306238800003,0.311099522557,0.583334467526,0.414022278121,0,1,0,1,0.405236257337,1,0,0.0750736691107,1,0
183,0.258782704003,0.269550853179,0.578555989587,0.446643813428,1,1,0,1,0.0752249013367,0,0,0.209031914528,0,0
184,0.268558306509,0.290655361825,0.5459869149350001,0.44877094957,1,0,1,0,0.12912968118100002,1,0,0.137676565887,1,0
185,0.260594829491,0.330004413745,0.522683698522,0.451455005723,1,0,1,0,0.007256731946649999,1,0,0.14098224274,1,0
186,0.266526987095,0.298651053725,0.522629830932,0.492214380128,0,0,0,0,0.13841220048699998,1,1,0.069596406167,1,0
187,0.303170634554,0.314925823067,0.49703109576,0.498019802823,1,0,0,0,0.136352604726,0,1,0.4275458783030001,1,0
188,0.284029811173,0.309599259919,0.550033582218,0.498043584467,0,1,0,0,0.102367916309,0,1,0.201561163323,0,0
189,0.258264275436,0.389567316501,0.53732526776,0.497901251375,0,0,1,1,0.031101314723900007,1,1,0.0501846482084,0,0
190,0.271326598538,0.371263676084,0.532430229381,0.4579689434000001,1,0,1,1,0.119701061282,0,0,0.165499069363,1,0
191,0.266489709621,0.328155531445,0.548383878319,0.458901178805,1,1,1,0,0.0082975477435,0,0,0.208725525887,0,0
192,0.280617577152,0.356915081905,0.563682126056,0.408282089501,0,1,1,0,0.0462474787082,1,0,0.132002187886,0,0
193,0.284676623164,0.36900770764,0.574385937239,0.365066200077,1,1,1,1,0.132120215432,1,1,0.108650543682,1,0
194,0.28150131855,0.384665694269,0.542710436758,0.3778936485710001,1,0,1,0,0.780838846819,1,1,0.128188479424,0,0
195,0.277674934284,0.410673607413,0.541405059912,0.333708305654,1,0,0,1,0.115015277172,1,1,0.192756187693,0,0
196,0.270744179523,0.388449105163,0.5311806465760001,0.343650343015,0,1,1,1,0.161041190104,0,0,0.0628141992865,0,0
197,0.312657632945,0.365561621579,0.515855700799,0.343332937124,0,0,1,0,0.17233681861699998,0,0,0.00476396603972,0,0
198,0.329946640131,0.364741647641,0.4691990426100001,0.359920553138,1,1,1,0,0.103509855451,0,1,0.0533762217055,0,0
199,0.302317963623,0.41348955287,0.516439864913,0.380936354539,1,1,1,1,0.162836657726,1,0,0.104664170882,0,0
200,0.323974156523,0.420318043512,0.552479715503,0.384703620656,1,0,1,1,0.00883003007129,0,1,0.150501118997,0,0
201,0.286193240629,0.423978313828,0.579362589638,0.407280614319,0,0,0,0,0.0946792216582,1,0,0.159131619126,1,0
202,0.295740219122,0.425159777161,0.570817603658,0.401657232595,0,1,0,0,0.0740672654374,0,1,0.189174911992,1,0
203,0.25427541911,0.398197456145,0.562795273537,0.3886255370440001,0,0,1,0,0.12527159919199998,0,1,0.10173551808,0,0
204,0.264943827822,0.449495800056,0.566065023194,0.38683641385,0,0,0,1,0.109875192663,0,0,0.339674823547,1,0
205,0.257611855854,0.437844766935,0.576558256952,0.35794020509400004,0,0,1,0,0.123941298955,0,0,0.3217895753,0,0
206,0.254614065596,0.436820850228,0.5305544064,0.386756469486,0,0,0,1,0.452666728246,0,1,0.229340802575,0,0
207,0.268177271451,0.476316187984,0.488425122994,0.391520575863,0,1,1,0,0.0774776879643,1,0,0.17119608692000002,1,0
208,0.271453542081,0.453837699113,0.437341265899,0.378295858111,1,0,1,1,0.904789805318,0,1,0.228211541585,0,0
209,0.304911084411,0.436868899066,0.458833056469,0.383371217288,1,0,1,0,0.231074690608,1,0,0.0582699878596,1,0
210,0.285835723573,0.433666118168,0.428557551547,0.425535456252,1,0,0,0,0.06368295446740001,0,1,0.10944413554,0,0
211,0.293206964621,0.411882820438,0.41639149439,0.375865806117,1,0,1,0,0.00567226497515,1,0,0.0540234111104,0,0
212,0.348311406149,0.405604195194,0.450780571338,0.378964665655,1,1,1,1,0.7634737046100001,1,-1,-1.0,0,1
213,0.366897571842,0.392645090971,0.421160171808,0.432408572694,0,1,1,0,0.173168444929,1,0,0.157582168,0,0
214,0.374943513189,0.391339109919,0.446537448875,0.456705877822,0,1,1,1,0.0458236662435,0,0,0.37156942827,1,0
215,0.405671574804,0.386533912373,0.467758758235,0.492142057359,1,0,1,1,0.29171398333500004,0,0,0.0203248866665,0,0
216,0.373087059262,0.325254378313,0.455849840867,0.487110806947,1,0,1,1,0.308490497122,0,1,0.0956940774322,1,0
217,0.33631752600500003,0.32988313707,0.512593319158,0.504866719805,0,0,1,0,0.103824394332,0,1,0.626957793229,1,0
218,0.329262136842,0.287730299712,0.487652900579,0.535195573681,1,0,1,1,0.0619557073715,0,1,0.13444907096300002,0,0
219,0.332219296687,0.256122630038,0.437028943589,0.541302690588,1,0,1,0,0.13194151388,1,0,0.199006515966,0,0
220,0.340631702398,0.259804424034,0.4753307402800001,0.511958745871,1,0,1,0,0.00993121801366,1,1,0.058363262825,1,0
221,0.365969182814,0.280449822685,0.452103236478,0.533771553457,0,0,1,1,0.138572186674,1,1,0.0109068318934,1,0
222,0.390075397068,0.256541711627,0.4737366800399999,0.516993429321,1,1,1,1,0.189797348818,1,1,0.176802848116,1,0
223,0.372833276294,0.263377933413,0.495290232847,0.533128416855,0,0,1,0,0.062409705909,0,0,0.185438781738,0,0
224,0.3699639738660001,0.25504954085000003,0.436229723921,0.538596696821,0,1,1,1,0.209601827585,0,1,0.100764733973,0,0
225,0.339819203268,0.25526045511900003,0.486745767715,0.561187404105,0,0,0,1,0.205041315678,0,0,0.0374977435913,1,0
226,0.29386889275,0.283978267497,0.485316479509,0.571604000212,1,0,1,1,0.16848326454,0,0,0.230261477802,0,0
227,0.281022537181,0.30237361380600003,0.4607275801870001,0.547633130297,1,1,1,0,0.41441433283,0,0,0.225567845312,1,0
228,0.293454494072,0.284757436734,0.4119867638800001,0.577500471447,1,1,1,0,0.183244254232,0,0,0.08239681041869999,0,0
229,0.281678784212,0.310103810294,0.4121059307680001,0.611574355586,1,0,1,1,0.381062646365,0,0,0.0377543252116,1,0
230,0.290385149224,0.296687445952,0.373073964821,0.563912944703,1,1,1,0,0.0645363147514,0,0,0.0596295685864,1,0
231,0.298256348069,0.335670603952,0.373606802999,0.5333515350729999,0,1,1,1,0.0118199606013,0,0,0.0681936593546,0,0
232,0.27174824043900003,0.309638887262,0.405776844019,0.5490133085600001,1,0,1,1,0.0229872983045,0,1,0.0447695685743,0,0
233,0.298791897518,0.294199754615,0.4274557593110001,0.544099633499,1,1,1,0,0.298258625821,0,0,0.0907646917121,1,0
234,0.334120740695,0.320689558551,0.435552609945,0.551868334331,1,0,1,1,0.120240486406,0,0,0.286062848611,0,0
235,0.346477951246,0.300770472466,0.416145127336,0.5561324107869999,0,0,1,1,0.176847221644,1,1,0.0814924356719,0,0
236,0.35148848745300004,0.283800348751,0.444331319568,0.532557521914,1,1,1,1,0.430754959722,1,0,0.0527697834987,1,0
237,0.329636406023,0.310546208543,0.465737185671,0.512261526446,0,1,1,0,0.14088655288899998,1,0,0.261423164671,1,0
238,0.280157664469,0.370244203521,0.428697710039,0.519608798952,1,0,0,0,0.130954127432,0,0,0.227466549303,0,0
239,0.264957304835,0.373931992963,0.447790075314,0.512550828074,1,1,1,1,0.030304704258,1,0,0.0254027878655,1,0
240,0.294213164126,0.357755220794,0.454786336498,0.542483670206,0,1,1,1,0.241524203495,0,0,0.770069059698,0,0
241,0.277439398889,0.340443031841,0.442439830601,0.540115529991,1,0,0,0,0.026507598137,0,1,0.157584281025,0,0
242,0.262848815016,0.392723569786,0.445512181862,0.498676766607,0,1,1,0,0.13905606942399998,1,1,0.147412480009,0,0
243,0.281684078592,0.374335692523,0.412309257897,0.472422435825,1,0,1,1,0.0117496270514,0,0,0.0361022414363,1,0
244,0.302893503517,0.340754359904,0.417646891948,0.462539539858,1,0,1,1,0.0149626326602,0,0,0.15935680722999998,0,0
245,0.277241713536,0.33502152532,0.454988379265,0.488399473312,0,0,1,0,0.138172824927,0,0,0.0293079601279,1,0
246,0.301353114111,0.325405091292,0.473015511151,0.443119511478,0,1,1,1,0.0321107370046,0,0,0.107239344769,0,0
247,0.282616395239,0.32696906254,0.481429998446,0.436732121296,0,1,1,1,0.270044005258,0,0,0.291954264478,0,0
248,0.284710181829,0.349706956665,0.486488667892,0.418646450259,1,0,1,1,0.23870120195,0,1,0.239180858649,0,0
249,0.253848140189,0.286414683977,0.474939898909,0.383922748465,1,1,1,0,0.108866977826,0,0,0.0799568701395,0,0
250,0.25480962173300004,0.290978520168,0.48373879706,0.354765116483,1,1,1,1,0.0347610742137,1,1,0.200582228976,0,0
251,0.28436811413,0.30167332189,0.446568103251,0.364545545907,1,1,0,1,1.98209694197,0,0,0.11401038280200003,1,0
